"success","trial_type","trial_index","time_elapsed","internal_node_id","player","subject_id","view_history","rt","response","question_order","trial_3d_dot_array","choices","response_ends_trial","aperture_width","aperture_height","background_color","aperture_center_x","aperture_center_y","border","border_thickness","border_color","canvas_width","canvas_height","trial_duration","RDK_type","no_response","rdm_trial_count","correct","correct_choice","number_of_apertures","number_of_dots","number_of_sets","coherent_direction","coherence","opposite_coherence","dot_radius","dot_life","move_distance","dot_color","aperture_type","reinsert_type","frame_rate","frame_rate_array","number_of_frames","fixation_cross","fixation_cross_width","fixation_cross_height","fixation_cross_color","fixation_cross_thickness","stimulus"
"true","fullscreen","0","5120","0.0-0.0","S","5ss2qgb","","","","","","","","","","","","","","","","","","","","","","","","","","","","","","","","","","","","","","","","","","","",""
"","instructions","1","8812","0.0-1.0","S","5ss2qgb","[{""page_index"":0,""viewing_time"":3690}]","3690","","","","","","","","","","","","","","","","","","","","","","","","","","","","","","","","","","","","","","","","","",""
"","survey-text","2","11161","0.0-2.0-0.0","S","5ss2qgb","","2347","{""Q0"":""s""}","","","","","","","","","","","","","","","","","","","","","","","","","","","","","","","","","","","","","","","","",""
"","survey-multi-choice","3","12277","0.0-2.0-1.0","S","5ss2qgb","","1113","{""confirmInitials"":""Confirm""}","[0]","","","","","","","","","","","","","","","","","","","","","","","","","","","","","","","","","","","","","","","",""
"","RDM-instruction","4","14124","0.0-3.0","S","5ss2qgb","","1841","arrowright","","[[[{""x"":817.9839244982694,""y"":463.6133655512716,""vx"":0,""vy"":0,""vx2"":0,""vy2"":0,""latestXMove"":0,""latestYMove"":0,""updateType"":""""},{""x"":768.1498339694372,""y"":529.7283698190649,""vx"":0,""vy"":0,""vx2"":0,""vy2"":0,""latestXMove"":0,""latestYMove"":0,""updateType"":""""},{""x"":770.2404690354247,""y"":556.8943685523433,""vx"":0,""vy"":0,""vx2"":0,""vy2"":0,""latestXMove"":0,""latestYMove"":0,""updateType"":""""},{""x"":718.4980272349841,""y"":487.46483274005084,""vx"":0,""vy"":0,""vx2"":0,""vy2"":0,""latestXMove"":0,""latestYMove"":0,""updateType"":""""},{""x"":667.3550819826962,""y"":437.33418585768123,""vx"":0,""vy"":0,""vx2"":0,""vy2"":0,""latestXMove"":0,""latestYMove"":0,""updateType"":""""},{""x"":814.0235020359303,""y"":368.9729544726951,""vx"":0,""vy"":0,""vx2"":0,""vy2"":0,""latestXMove"":0,""latestYMove"":0,""updateType"":""""},{""x"":800.3823896708977,""y"":399.4966315719412,""vx"":0,""vy"":0,""vx2"":0,""vy2"":0,""latestXMove"":0,""latestYMove"":0,""updateType"":""""},{""x"":873.2292233903715,""y"":410.1235834612653,""vx"":0,""vy"":0,""vx2"":0,""vy2"":0,""latestXMove"":0,""latestYMove"":0,""updateType"":""""},{""x"":819.1435555762678,""y"":448.128017037241,""vx"":0,""vy"":0,""vx2"":0,""vy2"":0,""latestXMove"":0,""latestYMove"":0,""updateType"":""""},{""x"":654.1454348354994,""y"":484.68707394851265,""vx"":0,""vy"":0,""vx2"":0,""vy2"":0,""latestXMove"":0,""latestYMove"":0,""updateType"":""""},{""x"":827.0844853037378,""y"":487.3155526950446,""vx"":0,""vy"":0,""vx2"":0,""vy2"":0,""latestXMove"":0,""latestYMove"":0,""updateType"":""""},{""x"":744.4222163097088,""y"":372.129016579284,""vx"":0,""vy"":0,""vx2"":0,""vy2"":0,""latestXMove"":0,""latestYMove"":0,""updateType"":""""},{""x"":795.0236597128967,""y"":440.3125189819555,""vx"":0,""vy"":0,""vx2"":0,""vy2"":0,""latestXMove"":0,""latestYMove"":0,""updateType"":""""},{""x"":757.2566020766377,""y"":386.038984375137,""vx"":0,""vy"":0,""vx2"":0,""vy2"":0,""latestXMove"":0,""latestYMove"":0,""updateType"":""""},{""x"":691.2054040419819,""y"":454.35346481739253,""vx"":0,""vy"":0,""vx2"":0,""vy2"":0,""latestXMove"":0,""latestYMove"":0,""updateType"":""""},{""x"":815.4844687879341,""y"":464.23164339372363,""vx"":0,""vy"":0,""vx2"":0,""vy2"":0,""latestXMove"":0,""latestYMove"":0,""updateType"":""""},{""x"":846.0228942662907,""y"":378.3778466291643,""vx"":0,""vy"":0,""vx2"":0,""vy2"":0,""latestXMove"":0,""latestYMove"":0,""updateType"":""""},{""x"":736.567740109776,""y"":418.56752143294443,""vx"":0,""vy"":0,""vx2"":0,""vy2"":0,""latestXMove"":0,""latestYMove"":0,""updateType"":""""},{""x"":845.9446383864099,""y"":516.2542766480531,""vx"":0,""vy"":0,""vx2"":0,""vy2"":0,""latestXMove"":0,""latestYMove"":0,""updateType"":""""},{""x"":693.2209115626903,""y"":443.4631075772875,""vx"":0,""vy"":0,""vx2"":0,""vy2"":0,""latestXMove"":0,""latestYMove"":0,""updateType"":""""},{""x"":740.5439328062521,""y"":396.44551947204934,""vx"":0,""vy"":0,""vx2"":0,""vy2"":0,""latestXMove"":0,""latestYMove"":0,""updateType"":""""},{""x"":710.6403592461207,""y"":364.9599135015281,""vx"":0,""vy"":0,""vx2"":0,""vy2"":0,""latestXMove"":0,""latestYMove"":0,""updateType"":""""},{""x"":843.61323779878,""y"":370.0291665385057,""vx"":0,""vy"":0,""vx2"":0,""vy2"":0,""latestXMove"":0,""latestYMove"":0,""updateType"":""""},{""x"":713.3895342824129,""y"":387.05116375935364,""vx"":0,""vy"":0,""vx2"":0,""vy2"":0,""latestXMove"":0,""latestYMove"":0,""updateType"":""""},{""x"":726.6358142775588,""y"":428.68154994925936,""vx"":0,""vy"":0,""vx2"":0,""vy2"":0,""latestXMove"":0,""latestYMove"":0,""updateType"":""""},{""x"":745.5214901154519,""y"":536.0714711449759,""vx"":0,""vy"":0,""vx2"":0,""vy2"":0,""latestXMove"":0,""latestYMove"":0,""updateType"":""""},{""x"":871.4044839962307,""y"":494.55440143073014,""vx"":0,""vy"":0,""vx2"":0,""vy2"":0,""latestXMove"":0,""latestYMove"":0,""updateType"":""""},{""x"":878.4116067814299,""y"":426.30005330698714,""vx"":0,""vy"":0,""vx2"":0,""vy2"":0,""latestXMove"":0,""latestYMove"":0,""updateType"":""""},{""x"":671.4111897926247,""y"":443.9622840564102,""vx"":0,""vy"":0,""vx2"":0,""vy2"":0,""latestXMove"":0,""latestYMove"":0,""updateType"":""""},{""x"":813.5620313094289,""y"":501.25480804496874,""vx"":0,""vy"":0,""vx2"":0,""vy2"":0,""latestXMove"":0,""latestYMove"":0,""updateType"":""""},{""x"":748.2143247429992,""y"":467.9443949448439,""vx"":0,""vy"":0,""vx2"":0,""vy2"":0,""latestXMove"":0,""latestYMove"":0,""updateType"":""""},{""x"":854.5773051580173,""y"":491.1101201315213,""vx"":0,""vy"":0,""vx2"":0,""vy2"":0,""latestXMove"":0,""latestYMove"":0,""updateType"":""""},{""x"":674.905327929967,""y"":513.4752030752871,""vx"":0,""vy"":0,""vx2"":0,""vy2"":0,""latestXMove"":0,""latestYMove"":0,""updateType"":""""},{""x"":812.0279878506913,""y"":510.5007459094743,""vx"":0,""vy"":0,""vx2"":0,""vy2"":0,""latestXMove"":0,""latestYMove"":0,""updateType"":""""},{""x"":659.0900474749683,""y"":499.65922561511053,""vx"":0,""vy"":0,""vx2"":0,""vy2"":0,""latestXMove"":0,""latestYMove"":0,""updateType"":""""},{""x"":776.4621973617346,""y"":413.55101075478046,""vx"":0,""vy"":0,""vx2"":0,""vy2"":0,""latestXMove"":0,""latestYMove"":0,""updateType"":""""},{""x"":828.0308961303834,""y"":538.7379823690964,""vx"":0,""vy"":0,""vx2"":0,""vy2"":0,""latestXMove"":0,""latestYMove"":0,""updateType"":""""},{""x"":856.2688629434899,""y"":508.0778184860416,""vx"":0,""vy"":0,""vx2"":0,""vy2"":0,""latestXMove"":0,""latestYMove"":0,""updateType"":""""},{""x"":866.0587021192151,""y"":473.4887096234292,""vx"":0,""vy"":0,""vx2"":0,""vy2"":0,""latestXMove"":0,""latestYMove"":0,""updateType"":""""},{""x"":708.148702708983,""y"":432.3479788896822,""vx"":0,""vy"":0,""vx2"":0,""vy2"":0,""latestXMove"":0,""latestYMove"":0,""updateType"":""""},{""x"":825.210151813233,""y"":537.5887656640414,""vx"":0,""vy"":0,""vx2"":0,""vy2"":0,""latestXMove"":0,""latestYMove"":0,""updateType"":""""},{""x"":775.4547950072399,""y"":502.36361484601014,""vx"":0,""vy"":0,""vx2"":0,""vy2"":0,""latestXMove"":0,""latestYMove"":0,""updateType"":""""},{""x"":711.8201549332798,""y"":546.7356736003034,""vx"":0,""vy"":0,""vx2"":0,""vy2"":0,""latestXMove"":0,""latestYMove"":0,""updateType"":""""},{""x"":782.2680799202657,""y"":489.14472747982427,""vx"":0,""vy"":0,""vx2"":0,""vy2"":0,""latestXMove"":0,""latestYMove"":0,""updateType"":""""},{""x"":842.8932909824714,""y"":415.5902630194219,""vx"":0,""vy"":0,""vx2"":0,""vy2"":0,""latestXMove"":0,""latestYMove"":0,""updateType"":""""},{""x"":805.1734730459865,""y"":430.52309932900994,""vx"":0,""vy"":0,""vx2"":0,""vy2"":0,""latestXMove"":0,""latestYMove"":0,""updateType"":""""},{""x"":852.9635781816665,""y"":477.94249656922375,""vx"":0,""vy"":0,""vx2"":0,""vy2"":0,""latestXMove"":0,""latestYMove"":0,""updateType"":""""},{""x"":793.2511877797165,""y"":529.5006613881972,""vx"":0,""vy"":0,""vx2"":0,""vy2"":0,""latestXMove"":0,""latestYMove"":0,""updateType"":""""},{""x"":667.9184020601372,""y"":477.40456743983543,""vx"":0,""vy"":0,""vx2"":0,""vy2"":0,""latestXMove"":0,""latestYMove"":0,""updateType"":""""},{""x"":747.9252337009592,""y"":361.29120641847476,""vx"":0,""vy"":0,""vx2"":0,""vy2"":0,""latestXMove"":0,""latestYMove"":0,""updateType"":""""}]],[[{""x"":739.184536392463,""y"":766.9419025246725,""vx"":0,""vy"":0,""vx2"":0,""vy2"":0,""latestXMove"":0,""latestYMove"":0,""updateType"":""""},{""x"":814.9602268216238,""y"":823.6460188442303,""vx"":0,""vy"":0,""vx2"":0,""vy2"":0,""latestXMove"":0,""latestYMove"":0,""updateType"":""""},{""x"":743.3330331586084,""y"":654.6517223269651,""vx"":0,""vy"":0,""vx2"":0,""vy2"":0,""latestXMove"":0,""latestYMove"":0,""updateType"":""""},{""x"":687.429955179178,""y"":713.1661017766703,""vx"":0,""vy"":0,""vx2"":0,""vy2"":0,""latestXMove"":0,""latestYMove"":0,""updateType"":""""},{""x"":674.8627238553674,""y"":718.542526091354,""vx"":0,""vy"":0,""vx2"":0,""vy2"":0,""latestXMove"":0,""latestYMove"":0,""updateType"":""""},{""x"":820.2855916363686,""y"":829.614388389424,""vx"":0,""vy"":0,""vx2"":0,""vy2"":0,""latestXMove"":0,""latestYMove"":0,""updateType"":""""},{""x"":760.3983590292249,""y"":752.0615391206733,""vx"":0,""vy"":0,""vx2"":0,""vy2"":0,""latestXMove"":0,""latestYMove"":0,""updateType"":""""},{""x"":732.749886619231,""y"":715.3582207804689,""vx"":0,""vy"":0,""vx2"":0,""vy2"":0,""latestXMove"":0,""latestYMove"":0,""updateType"":""""},{""x"":689.3343142364538,""y"":788.5039378797115,""vx"":0,""vy"":0,""vx2"":0,""vy2"":0,""latestXMove"":0,""latestYMove"":0,""updateType"":""""},{""x"":875.0699241719487,""y"":760.4436289996938,""vx"":0,""vy"":0,""vx2"":0,""vy2"":0,""latestXMove"":0,""latestYMove"":0,""updateType"":""""},{""x"":684.1087495848931,""y"":713.6482288999713,""vx"":0,""vy"":0,""vx2"":0,""vy2"":0,""latestXMove"":0,""latestYMove"":0,""updateType"":""""},{""x"":744.0788716513772,""y"":798.8837609785803,""vx"":0,""vy"":0,""vx2"":0,""vy2"":0,""latestXMove"":0,""latestYMove"":0,""updateType"":""""},{""x"":766.616160041574,""y"":690.019708546729,""vx"":0,""vy"":0,""vx2"":0,""vy2"":0,""latestXMove"":0,""latestYMove"":0,""updateType"":""""},{""x"":707.7608890148085,""y"":684.7420069257228,""vx"":0,""vy"":0,""vx2"":0,""vy2"":0,""latestXMove"":0,""latestYMove"":0,""updateType"":""""},{""x"":727.298108853643,""y"":801.4074787135438,""vx"":0,""vy"":0,""vx2"":0,""vy2"":0,""latestXMove"":0,""latestYMove"":0,""updateType"":""""},{""x"":833.2092964160752,""y"":681.0529667275289,""vx"":0,""vy"":0,""vx2"":0,""vy2"":0,""latestXMove"":0,""latestYMove"":0,""updateType"":""""},{""x"":719.8831829345077,""y"":803.5246937960756,""vx"":0,""vy"":0,""vx2"":0,""vy2"":0,""latestXMove"":0,""latestYMove"":0,""updateType"":""""},{""x"":885.6167907417358,""y"":753.640834968343,""vx"":0,""vy"":0,""vx2"":0,""vy2"":0,""latestXMove"":0,""latestYMove"":0,""updateType"":""""},{""x"":705.5699488981497,""y"":741.4916420429522,""vx"":0,""vy"":0,""vx2"":0,""vy2"":0,""latestXMove"":0,""latestYMove"":0,""updateType"":""""},{""x"":771.5806743226304,""y"":695.1957854847772,""vx"":0,""vy"":0,""vx2"":0,""vy2"":0,""latestXMove"":0,""latestYMove"":0,""updateType"":""""},{""x"":850.2375806299905,""y"":677.5312082371469,""vx"":0,""vy"":0,""vx2"":0,""vy2"":0,""latestXMove"":0,""latestYMove"":0,""updateType"":""""},{""x"":723.0912220189222,""y"":823.3054130413793,""vx"":0,""vy"":0,""vx2"":0,""vy2"":0,""latestXMove"":0,""latestYMove"":0,""updateType"":""""},{""x"":827.3634927892346,""y"":737.7110260525077,""vx"":0,""vy"":0,""vx2"":0,""vy2"":0,""latestXMove"":0,""latestYMove"":0,""updateType"":""""},{""x"":854.9582519033505,""y"":763.9917982004138,""vx"":0,""vy"":0,""vx2"":0,""vy2"":0,""latestXMove"":0,""latestYMove"":0,""updateType"":""""},{""x"":777.2585209388085,""y"":785.6264019706475,""vx"":0,""vy"":0,""vx2"":0,""vy2"":0,""latestXMove"":0,""latestYMove"":0,""updateType"":""""},{""x"":767.5781234618065,""y"":817.0838890199074,""vx"":0,""vy"":0,""vx2"":0,""vy2"":0,""latestXMove"":0,""latestYMove"":0,""updateType"":""""},{""x"":843.4384568098114,""y"":790.6935713197936,""vx"":0,""vy"":0,""vx2"":0,""vy2"":0,""latestXMove"":0,""latestYMove"":0,""updateType"":""""},{""x"":770.3107776715256,""y"":690.106961033243,""vx"":0,""vy"":0,""vx2"":0,""vy2"":0,""latestXMove"":0,""latestYMove"":0,""updateType"":""""},{""x"":808.2358858303269,""y"":747.467201029103,""vx"":0,""vy"":0,""vx2"":0,""vy2"":0,""latestXMove"":0,""latestYMove"":0,""updateType"":""""},{""x"":774.1786623545252,""y"":739.0313973966879,""vx"":0,""vy"":0,""vx2"":0,""vy2"":0,""latestXMove"":0,""latestYMove"":0,""updateType"":""""},{""x"":726.6136133678253,""y"":792.9487863019442,""vx"":0,""vy"":0,""vx2"":0,""vy2"":0,""latestXMove"":0,""latestYMove"":0,""updateType"":""""},{""x"":656.688854289829,""y"":751.3331596741069,""vx"":0,""vy"":0,""vx2"":0,""vy2"":0,""latestXMove"":0,""latestYMove"":0,""updateType"":""""},{""x"":785.3510935589851,""y"":710.498131548828,""vx"":0,""vy"":0,""vx2"":0,""vy2"":0,""latestXMove"":0,""latestYMove"":0,""updateType"":""""},{""x"":741.0008147316776,""y"":746.1750124307762,""vx"":0,""vy"":0,""vx2"":0,""vy2"":0,""latestXMove"":0,""latestYMove"":0,""updateType"":""""},{""x"":759.4602424991085,""y"":846.1169976726272,""vx"":0,""vy"":0,""vx2"":0,""vy2"":0,""latestXMove"":0,""latestYMove"":0,""updateType"":""""},{""x"":652.9372131067549,""y"":716.0759049577819,""vx"":0,""vy"":0,""vx2"":0,""vy2"":0,""latestXMove"":0,""latestYMove"":0,""updateType"":""""},{""x"":834.720379928246,""y"":704.9008136539794,""vx"":0,""vy"":0,""vx2"":0,""vy2"":0,""latestXMove"":0,""latestYMove"":0,""updateType"":""""},{""x"":676.8550291447216,""y"":791.1092950583079,""vx"":0,""vy"":0,""vx2"":0,""vy2"":0,""latestXMove"":0,""latestYMove"":0,""updateType"":""""},{""x"":783.2206948774556,""y"":759.2125023588742,""vx"":0,""vy"":0,""vx2"":0,""vy2"":0,""latestXMove"":0,""latestYMove"":0,""updateType"":""""},{""x"":794.2041181576345,""y"":723.022298650177,""vx"":0,""vy"":0,""vx2"":0,""vy2"":0,""latestXMove"":0,""latestYMove"":0,""updateType"":""""},{""x"":681.6932097610182,""y"":826.7385581282291,""vx"":0,""vy"":0,""vx2"":0,""vy2"":0,""latestXMove"":0,""latestYMove"":0,""updateType"":""""},{""x"":750.9636068833398,""y"":678.8247225489122,""vx"":0,""vy"":0,""vx2"":0,""vy2"":0,""latestXMove"":0,""latestYMove"":0,""updateType"":""""},{""x"":827.7315430317466,""y"":796.6515583821998,""vx"":0,""vy"":0,""vx2"":0,""vy2"":0,""latestXMove"":0,""latestYMove"":0,""updateType"":""""},{""x"":728.8033402572999,""y"":653.5937706240126,""vx"":0,""vy"":0,""vx2"":0,""vy2"":0,""latestXMove"":0,""latestYMove"":0,""updateType"":""""},{""x"":660.2256359774791,""y"":771.3313190574999,""vx"":0,""vy"":0,""vx2"":0,""vy2"":0,""latestXMove"":0,""latestYMove"":0,""updateType"":""""},{""x"":762.7606224358501,""y"":833.6384705574114,""vx"":0,""vy"":0,""vx2"":0,""vy2"":0,""latestXMove"":0,""latestYMove"":0,""updateType"":""""},{""x"":775.3893583525171,""y"":787.5392026789185,""vx"":0,""vy"":0,""vx2"":0,""vy2"":0,""latestXMove"":0,""latestYMove"":0,""updateType"":""""},{""x"":835.4893960476737,""y"":726.028006453036,""vx"":0,""vy"":0,""vx2"":0,""vy2"":0,""latestXMove"":0,""latestYMove"":0,""updateType"":""""},{""x"":810.0361352812132,""y"":674.9179722886593,""vx"":0,""vy"":0,""vx2"":0,""vy2"":0,""latestXMove"":0,""latestYMove"":0,""updateType"":""""},{""x"":740.8515689208326,""y"":815.1590702581423,""vx"":0,""vy"":0,""vx2"":0,""vy2"":0,""latestXMove"":0,""latestYMove"":0,""updateType"":""""}]],[[{""x"":1082.6783810959867,""y"":547.252034590329,""vx"":0,""vy"":0,""vx2"":0,""vy2"":0,""latestXMove"":0,""latestYMove"":0,""updateType"":""""},{""x"":1126.43355975345,""y"":406.61542011941816,""vx"":0,""vy"":0,""vx2"":0,""vy2"":0,""latestXMove"":0,""latestYMove"":0,""updateType"":""""},{""x"":1199.0138148751348,""y"":385.15311399338816,""vx"":0,""vy"":0,""vx2"":0,""vy2"":0,""latestXMove"":0,""latestYMove"":0,""updateType"":""""},{""x"":1230.620877925651,""y"":502.59494676755173,""vx"":0,""vy"":0,""vx2"":0,""vy2"":0,""latestXMove"":0,""latestYMove"":0,""updateType"":""""},{""x"":1206.0506142494892,""y"":480.7110214967289,""vx"":0,""vy"":0,""vx2"":0,""vy2"":0,""latestXMove"":0,""latestYMove"":0,""updateType"":""""},{""x"":1213.4834101576212,""y"":544.9367728008166,""vx"":0,""vy"":0,""vx2"":0,""vy2"":0,""latestXMove"":0,""latestYMove"":0,""updateType"":""""},{""x"":1185.6706557009702,""y"":447.53352226803855,""vx"":0,""vy"":0,""vx2"":0,""vy2"":0,""latestXMove"":0,""latestYMove"":0,""updateType"":""""},{""x"":1261.860173627957,""y"":404.31446900194237,""vx"":0,""vy"":0,""vx2"":0,""vy2"":0,""latestXMove"":0,""latestYMove"":0,""updateType"":""""},{""x"":1120.120986669527,""y"":348.5604547239095,""vx"":0,""vy"":0,""vx2"":0,""vy2"":0,""latestXMove"":0,""latestYMove"":0,""updateType"":""""},{""x"":1170.2341106764147,""y"":485.3044048577591,""vx"":0,""vy"":0,""vx2"":0,""vy2"":0,""latestXMove"":0,""latestYMove"":0,""updateType"":""""},{""x"":1149.5041061866918,""y"":355.62160654419574,""vx"":0,""vy"":0,""vx2"":0,""vy2"":0,""latestXMove"":0,""latestYMove"":0,""updateType"":""""},{""x"":1190.4135825024143,""y"":372.7661539075775,""vx"":0,""vy"":0,""vx2"":0,""vy2"":0,""latestXMove"":0,""latestYMove"":0,""updateType"":""""},{""x"":1183.5991105157107,""y"":503.75740498880504,""vx"":0,""vy"":0,""vx2"":0,""vy2"":0,""latestXMove"":0,""latestYMove"":0,""updateType"":""""},{""x"":1145.4084125084335,""y"":552.2875097906328,""vx"":0,""vy"":0,""vx2"":0,""vy2"":0,""latestXMove"":0,""latestYMove"":0,""updateType"":""""},{""x"":1200.1418784670218,""y"":403.38533518163484,""vx"":0,""vy"":0,""vx2"":0,""vy2"":0,""latestXMove"":0,""latestYMove"":0,""updateType"":""""},{""x"":1102.8081261447426,""y"":511.85975155842493,""vx"":0,""vy"":0,""vx2"":0,""vy2"":0,""latestXMove"":0,""latestYMove"":0,""updateType"":""""},{""x"":1223.727296450627,""y"":393.0581470762038,""vx"":0,""vy"":0,""vx2"":0,""vy2"":0,""latestXMove"":0,""latestYMove"":0,""updateType"":""""},{""x"":1070.5718819929114,""y"":385.8981565932733,""vx"":0,""vy"":0,""vx2"":0,""vy2"":0,""latestXMove"":0,""latestYMove"":0,""updateType"":""""},{""x"":1158.1420702302016,""y"":415.8581732275956,""vx"":0,""vy"":0,""vx2"":0,""vy2"":0,""latestXMove"":0,""latestYMove"":0,""updateType"":""""},{""x"":1123.580178082425,""y"":405.90094655196805,""vx"":0,""vy"":0,""vx2"":0,""vy2"":0,""latestXMove"":0,""latestYMove"":0,""updateType"":""""},{""x"":1144.5553507593324,""y"":528.1694781026177,""vx"":0,""vy"":0,""vx2"":0,""vy2"":0,""latestXMove"":0,""latestYMove"":0,""updateType"":""""},{""x"":1086.6111197777766,""y"":443.36600052114636,""vx"":0,""vy"":0,""vx2"":0,""vy2"":0,""latestXMove"":0,""latestYMove"":0,""updateType"":""""},{""x"":1201.1741338043878,""y"":352.55979334791573,""vx"":0,""vy"":0,""vx2"":0,""vy2"":0,""latestXMove"":0,""latestYMove"":0,""updateType"":""""},{""x"":1200.780103894419,""y"":491.63548998944657,""vx"":0,""vy"":0,""vx2"":0,""vy2"":0,""latestXMove"":0,""latestYMove"":0,""updateType"":""""},{""x"":1173.9985177978024,""y"":360.257113466093,""vx"":0,""vy"":0,""vx2"":0,""vy2"":0,""latestXMove"":0,""latestYMove"":0,""updateType"":""""},{""x"":1054.6947173313786,""y"":516.962312643179,""vx"":0,""vy"":0,""vx2"":0,""vy2"":0,""latestXMove"":0,""latestYMove"":0,""updateType"":""""},{""x"":1221.654284059499,""y"":396.65645628613856,""vx"":0,""vy"":0,""vx2"":0,""vy2"":0,""latestXMove"":0,""latestYMove"":0,""updateType"":""""},{""x"":1061.9941121838597,""y"":406.3652580701968,""vx"":0,""vy"":0,""vx2"":0,""vy2"":0,""latestXMove"":0,""latestYMove"":0,""updateType"":""""},{""x"":1162.5126598784957,""y"":563.5866346981875,""vx"":0,""vy"":0,""vx2"":0,""vy2"":0,""latestXMove"":0,""latestYMove"":0,""updateType"":""""},{""x"":1146.7899296859398,""y"":428.56767380453914,""vx"":0,""vy"":0,""vx2"":0,""vy2"":0,""latestXMove"":0,""latestYMove"":0,""updateType"":""""},{""x"":1199.6932877320564,""y"":364.37058957550795,""vx"":0,""vy"":0,""vx2"":0,""vy2"":0,""latestXMove"":0,""latestYMove"":0,""updateType"":""""},{""x"":1122.8971954921167,""y"":394.730035072942,""vx"":0,""vy"":0,""vx2"":0,""vy2"":0,""latestXMove"":0,""latestYMove"":0,""updateType"":""""},{""x"":1117.1165184646036,""y"":490.9745694573865,""vx"":0,""vy"":0,""vx2"":0,""vy2"":0,""latestXMove"":0,""latestYMove"":0,""updateType"":""""},{""x"":1061.859657845084,""y"":528.9596050543653,""vx"":0,""vy"":0,""vx2"":0,""vy2"":0,""latestXMove"":0,""latestYMove"":0,""updateType"":""""},{""x"":1183.3689830369622,""y"":463.86493269399506,""vx"":0,""vy"":0,""vx2"":0,""vy2"":0,""latestXMove"":0,""latestYMove"":0,""updateType"":""""},{""x"":1137.101090149144,""y"":427.342300997193,""vx"":0,""vy"":0,""vx2"":0,""vy2"":0,""latestXMove"":0,""latestYMove"":0,""updateType"":""""},{""x"":1223.6235255995118,""y"":391.177697508391,""vx"":0,""vy"":0,""vx2"":0,""vy2"":0,""latestXMove"":0,""latestYMove"":0,""updateType"":""""},{""x"":1126.0929027196153,""y"":420.0023411361181,""vx"":0,""vy"":0,""vx2"":0,""vy2"":0,""latestXMove"":0,""latestYMove"":0,""updateType"":""""},{""x"":1079.991390677053,""y"":418.410171455768,""vx"":0,""vy"":0,""vx2"":0,""vy2"":0,""latestXMove"":0,""latestYMove"":0,""updateType"":""""},{""x"":1161.5535106218401,""y"":441.48243730669043,""vx"":0,""vy"":0,""vx2"":0,""vy2"":0,""latestXMove"":0,""latestYMove"":0,""updateType"":""""},{""x"":1191.554009240181,""y"":500.0143092214031,""vx"":0,""vy"":0,""vx2"":0,""vy2"":0,""latestXMove"":0,""latestYMove"":0,""updateType"":""""},{""x"":1050.8020529652338,""y"":452.56049499577745,""vx"":0,""vy"":0,""vx2"":0,""vy2"":0,""latestXMove"":0,""latestYMove"":0,""updateType"":""""},{""x"":1175.0449200506985,""y"":541.1152636948187,""vx"":0,""vy"":0,""vx2"":0,""vy2"":0,""latestXMove"":0,""latestYMove"":0,""updateType"":""""},{""x"":1207.0204078138556,""y"":359.72944204906787,""vx"":0,""vy"":0,""vx2"":0,""vy2"":0,""latestXMove"":0,""latestYMove"":0,""updateType"":""""},{""x"":1179.7074745119019,""y"":465.92973082554613,""vx"":0,""vy"":0,""vx2"":0,""vy2"":0,""latestXMove"":0,""latestYMove"":0,""updateType"":""""},{""x"":1239.2750418716716,""y"":410.5384254024254,""vx"":0,""vy"":0,""vx2"":0,""vy2"":0,""latestXMove"":0,""latestYMove"":0,""updateType"":""""},{""x"":1248.1042605182395,""y"":493.7476859606943,""vx"":0,""vy"":0,""vx2"":0,""vy2"":0,""latestXMove"":0,""latestYMove"":0,""updateType"":""""},{""x"":1233.8893485371639,""y"":380.6658227351025,""vx"":0,""vy"":0,""vx2"":0,""vy2"":0,""latestXMove"":0,""latestYMove"":0,""updateType"":""""},{""x"":1065.7851711798762,""y"":369.1799177181207,""vx"":0,""vy"":0,""vx2"":0,""vy2"":0,""latestXMove"":0,""latestYMove"":0,""updateType"":""""},{""x"":1203.6332712798187,""y"":342.3191446312296,""vx"":0,""vy"":0,""vx2"":0,""vy2"":0,""latestXMove"":0,""latestYMove"":0,""updateType"":""""}]],[[{""x"":1261.9740093033074,""y"":779.3060216934869,""vx"":0,""vy"":0,""vx2"":0,""vy2"":0,""latestXMove"":0,""latestYMove"":0,""updateType"":""""},{""x"":1059.701423154761,""y"":700.5925573286755,""vx"":0,""vy"":0,""vx2"":0,""vy2"":0,""latestXMove"":0,""latestYMove"":0,""updateType"":""""},{""x"":1163.907574315812,""y"":852.5391828514116,""vx"":0,""vy"":0,""vx2"":0,""vy2"":0,""latestXMove"":0,""latestYMove"":0,""updateType"":""""},{""x"":1067.1244432230776,""y"":718.0250751203257,""vx"":0,""vy"":0,""vx2"":0,""vy2"":0,""latestXMove"":0,""latestYMove"":0,""updateType"":""""},{""x"":1235.4612803999173,""y"":755.3762342299759,""vx"":0,""vy"":0,""vx2"":0,""vy2"":0,""latestXMove"":0,""latestYMove"":0,""updateType"":""""},{""x"":1160.9829712274714,""y"":770.3959861409048,""vx"":0,""vy"":0,""vx2"":0,""vy2"":0,""latestXMove"":0,""latestYMove"":0,""updateType"":""""},{""x"":1140.004913902122,""y"":863.1389664415756,""vx"":0,""vy"":0,""vx2"":0,""vy2"":0,""latestXMove"":0,""latestYMove"":0,""updateType"":""""},{""x"":1256.8209876443766,""y"":756.3463134033177,""vx"":0,""vy"":0,""vx2"":0,""vy2"":0,""latestXMove"":0,""latestYMove"":0,""updateType"":""""},{""x"":1098.0952112287823,""y"":839.5730333605259,""vx"":0,""vy"":0,""vx2"":0,""vy2"":0,""latestXMove"":0,""latestYMove"":0,""updateType"":""""},{""x"":1090.39214136954,""y"":842.3316341199838,""vx"":0,""vy"":0,""vx2"":0,""vy2"":0,""latestXMove"":0,""latestYMove"":0,""updateType"":""""},{""x"":1160.379544680237,""y"":672.1893292447164,""vx"":0,""vy"":0,""vx2"":0,""vy2"":0,""latestXMove"":0,""latestYMove"":0,""updateType"":""""},{""x"":1128.9473949383007,""y"":833.7034663512038,""vx"":0,""vy"":0,""vx2"":0,""vy2"":0,""latestXMove"":0,""latestYMove"":0,""updateType"":""""},{""x"":1161.9193238822604,""y"":862.3429824574783,""vx"":0,""vy"":0,""vx2"":0,""vy2"":0,""latestXMove"":0,""latestYMove"":0,""updateType"":""""},{""x"":1185.380486544802,""y"":710.9941369382306,""vx"":0,""vy"":0,""vx2"":0,""vy2"":0,""latestXMove"":0,""latestYMove"":0,""updateType"":""""},{""x"":1079.5868805275659,""y"":836.346453526073,""vx"":0,""vy"":0,""vx2"":0,""vy2"":0,""latestXMove"":0,""latestYMove"":0,""updateType"":""""},{""x"":1169.2008873901414,""y"":781.3912473734242,""vx"":0,""vy"":0,""vx2"":0,""vy2"":0,""latestXMove"":0,""latestYMove"":0,""updateType"":""""},{""x"":1084.6644264291913,""y"":667.2458707636988,""vx"":0,""vy"":0,""vx2"":0,""vy2"":0,""latestXMove"":0,""latestYMove"":0,""updateType"":""""},{""x"":1245.0186736640376,""y"":750.3987346134538,""vx"":0,""vy"":0,""vx2"":0,""vy2"":0,""latestXMove"":0,""latestYMove"":0,""updateType"":""""},{""x"":1065.2478603141024,""y"":716.2145866758884,""vx"":0,""vy"":0,""vx2"":0,""vy2"":0,""latestXMove"":0,""latestYMove"":0,""updateType"":""""},{""x"":1045.8880022429648,""y"":717.4743152994688,""vx"":0,""vy"":0,""vx2"":0,""vy2"":0,""latestXMove"":0,""latestYMove"":0,""updateType"":""""},{""x"":1173.386926618581,""y"":767.4269149083655,""vx"":0,""vy"":0,""vx2"":0,""vy2"":0,""latestXMove"":0,""latestYMove"":0,""updateType"":""""},{""x"":1184.2428216843791,""y"":810.0937031658797,""vx"":0,""vy"":0,""vx2"":0,""vy2"":0,""latestXMove"":0,""latestYMove"":0,""updateType"":""""},{""x"":1063.6359279291632,""y"":684.9168516906312,""vx"":0,""vy"":0,""vx2"":0,""vy2"":0,""latestXMove"":0,""latestYMove"":0,""updateType"":""""},{""x"":1045.328994342166,""y"":762.8141241733907,""vx"":0,""vy"":0,""vx2"":0,""vy2"":0,""latestXMove"":0,""latestYMove"":0,""updateType"":""""},{""x"":1128.9398241156123,""y"":817.5578275880843,""vx"":0,""vy"":0,""vx2"":0,""vy2"":0,""latestXMove"":0,""latestYMove"":0,""updateType"":""""},{""x"":1098.0581959224955,""y"":665.0363498795506,""vx"":0,""vy"":0,""vx2"":0,""vy2"":0,""latestXMove"":0,""latestYMove"":0,""updateType"":""""},{""x"":1127.1187731637185,""y"":804.7512276861667,""vx"":0,""vy"":0,""vx2"":0,""vy2"":0,""latestXMove"":0,""latestYMove"":0,""updateType"":""""},{""x"":1246.574454402256,""y"":820.9315556716393,""vx"":0,""vy"":0,""vx2"":0,""vy2"":0,""latestXMove"":0,""latestYMove"":0,""updateType"":""""},{""x"":1098.1166437278541,""y"":741.4635361123007,""vx"":0,""vy"":0,""vx2"":0,""vy2"":0,""latestXMove"":0,""latestYMove"":0,""updateType"":""""},{""x"":1154.1177912723026,""y"":741.6303593699369,""vx"":0,""vy"":0,""vx2"":0,""vy2"":0,""latestXMove"":0,""latestYMove"":0,""updateType"":""""},{""x"":1162.1292545777883,""y"":828.1370181725259,""vx"":0,""vy"":0,""vx2"":0,""vy2"":0,""latestXMove"":0,""latestYMove"":0,""updateType"":""""},{""x"":1105.2831612062982,""y"":742.2910218692135,""vx"":0,""vy"":0,""vx2"":0,""vy2"":0,""latestXMove"":0,""latestYMove"":0,""updateType"":""""},{""x"":1139.5576977858193,""y"":666.9440620212416,""vx"":0,""vy"":0,""vx2"":0,""vy2"":0,""latestXMove"":0,""latestYMove"":0,""updateType"":""""},{""x"":1221.6688620908108,""y"":732.5028734231528,""vx"":0,""vy"":0,""vx2"":0,""vy2"":0,""latestXMove"":0,""latestYMove"":0,""updateType"":""""},{""x"":1106.7714670101484,""y"":756.3297058996842,""vx"":0,""vy"":0,""vx2"":0,""vy2"":0,""latestXMove"":0,""latestYMove"":0,""updateType"":""""},{""x"":1124.4256930094684,""y"":742.5418330332325,""vx"":0,""vy"":0,""vx2"":0,""vy2"":0,""latestXMove"":0,""latestYMove"":0,""updateType"":""""},{""x"":1039.5179578988857,""y"":762.1277878884,""vx"":0,""vy"":0,""vx2"":0,""vy2"":0,""latestXMove"":0,""latestYMove"":0,""updateType"":""""},{""x"":1070.2585041711195,""y"":720.5287859068287,""vx"":0,""vy"":0,""vx2"":0,""vy2"":0,""latestXMove"":0,""latestYMove"":0,""updateType"":""""},{""x"":1190.499564051467,""y"":659.104517553282,""vx"":0,""vy"":0,""vx2"":0,""vy2"":0,""latestXMove"":0,""latestYMove"":0,""updateType"":""""},{""x"":1071.4283159883616,""y"":737.2906145014979,""vx"":0,""vy"":0,""vx2"":0,""vy2"":0,""latestXMove"":0,""latestYMove"":0,""updateType"":""""},{""x"":1181.9146131497712,""y"":736.8367364712719,""vx"":0,""vy"":0,""vx2"":0,""vy2"":0,""latestXMove"":0,""latestYMove"":0,""updateType"":""""},{""x"":1083.4103795357757,""y"":667.3147285311501,""vx"":0,""vy"":0,""vx2"":0,""vy2"":0,""latestXMove"":0,""latestYMove"":0,""updateType"":""""},{""x"":1173.7372907911674,""y"":797.7771459959297,""vx"":0,""vy"":0,""vx2"":0,""vy2"":0,""latestXMove"":0,""latestYMove"":0,""updateType"":""""},{""x"":1100.4673613480975,""y"":843.425121490181,""vx"":0,""vy"":0,""vx2"":0,""vy2"":0,""latestXMove"":0,""latestYMove"":0,""updateType"":""""},{""x"":1101.7652326366099,""y"":840.8805451360163,""vx"":0,""vy"":0,""vx2"":0,""vy2"":0,""latestXMove"":0,""latestYMove"":0,""updateType"":""""},{""x"":1039.5906044513513,""y"":752.3251740805076,""vx"":0,""vy"":0,""vx2"":0,""vy2"":0,""latestXMove"":0,""latestYMove"":0,""updateType"":""""},{""x"":1194.0901168400471,""y"":778.4675001367916,""vx"":0,""vy"":0,""vx2"":0,""vy2"":0,""latestXMove"":0,""latestYMove"":0,""updateType"":""""},{""x"":1099.8922987907586,""y"":733.034685801853,""vx"":0,""vy"":0,""vx2"":0,""vy2"":0,""latestXMove"":0,""latestYMove"":0,""updateType"":""""},{""x"":1078.8767480842746,""y"":844.6140994939193,""vx"":0,""vy"":0,""vx2"":0,""vy2"":0,""latestXMove"":0,""latestYMove"":0,""updateType"":""""},{""x"":1256.5410758540054,""y"":769.7367686021327,""vx"":0,""vy"":0,""vx2"":0,""vy2"":0,""latestXMove"":0,""latestYMove"":0,""updateType"":""""}]]]","[""arrowleft"",""arrowright""]","true","240","240","black","[768,768,1152,1152]","[450,750,450,750]","false","1","[""rgb(190,174,212)"",""rgb(255,255,153)"",""rgb(127,201,127)"",""rgb(253,192,134)""]","1920","1200","","","","","","","","","","","","","","","","","","","","","","","","","","",""
"","instructions","5","15052","0.0-4.0","S","5ss2qgb","[{""page_index"":0,""viewing_time"":927}]","927","","","","","","","","","","","","","","","","","","","","","","","","","","","","","","","","","","","","","","","","","",""
"","RDM-pretrial","6","16565","0.0-5.0-0.0","S","5ss2qgb","","","","","","","","240","240","black","[768,768,1152,1152]","[450,750,450,750]","false","1","[""rgb(190,174,212)"",""rgb(255,255,153)"",""rgb(127,201,127)"",""rgb(253,192,134)""]","1920","1200","1500","3","","","","","","","","","","","","","","","","","","","","","","","","",""
"","RDM-trial","7","17060","0.0-5.0-1.0","S","5ss2qgb","","492","arrowright","","","allkeys","true","240","400","black","[768,768,1152,1152]","[450,750,450,750]","false","1","1","1920","1200","1000","3","false","true","true","arrowright","1","[50,50,50,50]","1","0","[0.512,0,0,0]","0","1.3333333333333333","-1","1","white","1","2","15.933333333333334","[3,9,16,17,16,18,16,17,17,17,16,17,16,17,16,17,17,17,16,17,17,16,17,17,16,17,17,17,17,15]","30","false","20","20","black","1",""
"","RDM-training-fb","8","17571","0.0-5.0-2.0","S","5ss2qgb","","","","","","","true","240","240","black","[768,768,1152,1152]","[450,750,450,750]","false","1","[""rgb(190,174,212)"",""rgb(255,255,153)"",""rgb(127,201,127)"",""rgb(253,192,134)""]","1920","1200","500","3","","","","","","","","","","","","","","","1","","","","","","","","","",""
"","RDM-pretrial","9","19081","0.0-5.0-0.1","S","5ss2qgb","","","","","","","","240","240","black","[768,768,1152,1152]","[450,750,450,750]","false","1","[""rgb(190,174,212)"",""rgb(255,255,153)"",""rgb(127,201,127)"",""rgb(253,192,134)""]","1920","1200","1500","3","","","","","","","","","","","","","","","","","","","","","","","","",""
"","RDM-trial","10","19445","0.0-5.0-1.1","S","5ss2qgb","","361","arrowleft","","","allkeys","true","240","400","black","[768,768,1152,1152]","[450,750,450,750]","false","1","1","1920","1200","1000","3","false","true","false","arrowright","1","[50,50,50,50]","1","0","[0.512,0,0,0]","0","1.3333333333333333","-1","1","white","1","2","15.863636363636363","[2,13,17,17,16,17,17,16,17,17,16,17,17,16,17,17,17,17,16,17,17,16]","22","false","20","20","black","1",""
"","RDM-training-fb","11","19947","0.0-5.0-2.1","S","5ss2qgb","","","","","","","true","240","240","black","[768,768,1152,1152]","[450,750,450,750]","false","1","[""rgb(190,174,212)"",""rgb(255,255,153)"",""rgb(127,201,127)"",""rgb(253,192,134)""]","1920","1200","500","3","","","","","","","","","","","","","","","1","","","","","","","","","",""
"","RDM-pretrial","12","21461","0.0-5.0-0.2","S","5ss2qgb","","","","","","","","240","240","black","[768,768,1152,1152]","[450,750,450,750]","false","1","[""rgb(190,174,212)"",""rgb(255,255,153)"",""rgb(127,201,127)"",""rgb(253,192,134)""]","1920","1200","1500","3","","","","","","","","","","","","","","","","","","","","","","","","",""
"","RDM-trial","13","21764","0.0-5.0-1.2","S","5ss2qgb","","300","arrowright","","","allkeys","true","240","400","black","[768,768,1152,1152]","[450,750,450,750]","false","1","1","1920","1200","1000","3","false","true","false","arrowleft","1","[50,50,50,50]","1","180","[0.032,0,0,0]","0","1.3333333333333333","-1","1","white","1","2","16.055555555555557","[3,18,17,17,16,18,16,17,16,17,16,18,16,17,17,17,16,17]","18","false","20","20","black","1",""
"","RDM-training-fb","14","22279","0.0-5.0-2.2","S","5ss2qgb","","","","","","","true","240","240","black","[768,768,1152,1152]","[450,750,450,750]","false","1","[""rgb(190,174,212)"",""rgb(255,255,153)"",""rgb(127,201,127)"",""rgb(253,192,134)""]","1920","1200","500","3","","","","","","","","","","","","","","","1","","","","","","","","","",""
"","RDM-pretrial","15","23786","0.0-5.0-0.3","S","5ss2qgb","","","","","","","","240","240","black","[768,768,1152,1152]","[450,750,450,750]","false","1","[""rgb(190,174,212)"",""rgb(255,255,153)"",""rgb(127,201,127)"",""rgb(253,192,134)""]","1920","1200","1500","3","","","","","","","","","","","","","","","","","","","","","","","","",""
"","RDM-trial","16","24060","0.0-5.0-1.3","S","5ss2qgb","","271","arrowleft","","","allkeys","true","240","400","black","[768,768,1152,1152]","[450,750,450,750]","false","1","1","1920","1200","1000","3","false","true","true","arrowleft","1","[50,50,50,50]","1","180","[0.032,0,0,0]","0","1.3333333333333333","-1","1","white","1","2","15.529411764705882","[2,12,17,17,17,16,17,17,16,17,16,17,17,17,16,17,16]","17","false","20","20","black","1",""
"","RDM-training-fb","17","24561","0.0-5.0-2.3","S","5ss2qgb","","","","","","","true","240","240","black","[768,768,1152,1152]","[450,750,450,750]","false","1","[""rgb(190,174,212)"",""rgb(255,255,153)"",""rgb(127,201,127)"",""rgb(253,192,134)""]","1920","1200","500","3","","","","","","","","","","","","","","","1","","","","","","","","","",""
"","instructions","18","25148","0.0-7.0","S","5ss2qgb","[{""page_index"":0,""viewing_time"":587}]","587","","","","","","","","","","","","","","","","","","","","","","","","","","","","","","","","","","","","","","","","","",""
"","RDM-pretrial","19","26661","0.0-8.0-0.0","S","5ss2qgb","","","","","","","","240","240","black","[768,768,1152,1152]","[450,750,450,750]","false","1","[""rgb(190,174,212)"",""rgb(255,255,153)"",""rgb(127,201,127)"",""rgb(253,192,134)""]","1920","1200","1500","3","","","","","","","","","","","","","","","","","","","","","","","","",""
"","RDM-trial","20","26972","0.0-8.0-1.0","S","5ss2qgb","","309","arrowright","","","allkeys","true","240","400","black","[768,768,1152,1152]","[450,750,450,750]","false","1","1","1920","1200","1000","3","false","true","false","arrowleft","1","[50,50,50,50]","1","180","0.032","0","1.3333333333333333","-1","1","white","1","2","16.22222222222222","[2,23,17,16,17,17,17,16,17,16,17,17,17,16,17,17,17,16]","18","false","20","20","black","1",""
"","RDM-fb","21","27494","0.0-8.0-2.0","S","5ss2qgb","","","","","","","true","240","240","black","[768,768,1152,1152]","[450,750,450,750]","false","1","[""rgb(190,174,212)"",""rgb(255,255,153)"",""rgb(127,201,127)"",""rgb(253,192,134)""]","1920","1200","500","3","","","","","","","","","","","","","","","1","","","","","","","","","",""
"","RDM-pretrial","22","29003","0.0-8.0-0.1","S","5ss2qgb","","","","","","","","240","240","black","[768,768,1152,1152]","[450,750,450,750]","false","1","[""rgb(190,174,212)"",""rgb(255,255,153)"",""rgb(127,201,127)"",""rgb(253,192,134)""]","1920","1200","1500","3","","","","","","","","","","","","","","","","","","","","","","","","",""
"","RDM-trial","23","29084","0.0-8.0-1.1","S","5ss2qgb","","78","arrowright","","","allkeys","true","240","400","black","[768,768,1152,1152]","[450,750,450,750]","false","1","1","1920","1200","1000","3","false","true","true","arrowright","1","[50,50,50,50]","1","0","0.032","0","1.3333333333333333","-1","1","white","1","2","13.8","[2,16,17,17,17]","5","false","20","20","black","1",""
"","RDM-fb","24","29592","0.0-8.0-2.1","S","5ss2qgb","","","","","","","true","240","240","black","[768,768,1152,1152]","[450,750,450,750]","false","1","[""rgb(190,174,212)"",""rgb(255,255,153)"",""rgb(127,201,127)"",""rgb(253,192,134)""]","1920","1200","500","3","","","","","","","","","","","","","","","1","","","","","","","","","",""
"","RDM-pretrial","25","31097","0.0-8.0-0.2","S","5ss2qgb","","","","","","","","240","240","black","[768,768,1152,1152]","[450,750,450,750]","false","1","[""rgb(190,174,212)"",""rgb(255,255,153)"",""rgb(127,201,127)"",""rgb(253,192,134)""]","1920","1200","1500","3","","","","","","","","","","","","","","","","","","","","","","","","",""
"","RDM-trial","26","31261","0.0-8.0-1.2","S","5ss2qgb","","159","arrowleft","","","allkeys","true","240","400","black","[768,768,1152,1152]","[450,750,450,750]","false","1","1","1920","1200","1000","3","false","true","false","arrowright","1","[50,50,50,50]","1","0","0.032","0","1.3333333333333333","-1","1","white","1","2","15.7","[3,21,16,17,16,17,17,16,17,17]","10","false","20","20","black","1",""
"","RDM-fb","27","31781","0.0-8.0-2.2","S","5ss2qgb","","","","","","","true","240","240","black","[768,768,1152,1152]","[450,750,450,750]","false","1","[""rgb(190,174,212)"",""rgb(255,255,153)"",""rgb(127,201,127)"",""rgb(253,192,134)""]","1920","1200","500","3","","","","","","","","","","","","","","","1","","","","","","","","","",""
"","preparing-schedules","28","39931","0.0-9.0","S","5ss2qgb","","","","","","","","","","","","","","","","","","","","","","","","","","","","","","","","","","","","","","","","","","","",""
"","instructions","29","41021","0.0-10.0","S","5ss2qgb","[{""page_index"":0,""viewing_time"":1086}]","1087","","","","","","","","","","","","","","","","","","","","","","","","","","","","","","","","","","","","","","","","","",""
"","main-fb-sequence","30","52321","0.0-11.0","S","5ss2qgb","","","","","[[[{""x"":698.6081979720566,""y"":372.9145504882713,""vx"":-1,""vy"":-1.2246467991473532e-16,""vx2"":0,""vy2"":0,""latestXMove"":-1,""latestYMove"":-1.2246467991473532e-16,""lifeCount"":0,""updateType"":""constant direction""},{""x"":717.9700642567989,""y"":480.6635553275047,""vx"":-1,""vy"":-1.2246467991473532e-16,""vx2"":0,""vy2"":0,""latestXMove"":-1,""latestYMove"":-1.2246467991473532e-16,""lifeCount"":0,""updateType"":""constant direction""},{""x"":718.3694897250394,""y"":428.08862136127374,""vx"":-1,""vy"":-1.2246467991473532e-16,""vx2"":0,""vy2"":0,""latestXMove"":-1,""latestYMove"":-1.2246467991473532e-16,""lifeCount"":0,""updateType"":""constant direction""},{""x"":753.2611188135721,""y"":411.2786737357131,""vx"":-1,""vy"":-1.2246467991473532e-16,""vx2"":0,""vy2"":0,""latestXMove"":-1,""latestYMove"":-1.2246467991473532e-16,""lifeCount"":0,""updateType"":""constant direction""},{""x"":741.9577508612789,""y"":544.4726528133313,""vx"":-1,""vy"":-1.2246467991473532e-16,""vx2"":0,""vy2"":0,""latestXMove"":-1,""latestYMove"":-1.2246467991473532e-16,""lifeCount"":0,""updateType"":""constant direction""},{""x"":814.1894929887186,""y"":507.6065668555122,""vx"":-1,""vy"":-1.2246467991473532e-16,""vx2"":0,""vy2"":0,""latestXMove"":-1,""latestYMove"":-1.2246467991473532e-16,""lifeCount"":0,""updateType"":""constant direction""},{""x"":753.3711246420339,""y"":391.49570635825364,""vx"":-1,""vy"":-1.2246467991473532e-16,""vx2"":0,""vy2"":0,""latestXMove"":-1,""latestYMove"":-1.2246467991473532e-16,""lifeCount"":0,""updateType"":""constant direction""},{""x"":807.6676621466263,""y"":425.7401997577593,""vx"":-1,""vy"":-1.2246467991473532e-16,""vx2"":0,""vy2"":0,""latestXMove"":-1,""latestYMove"":-1.2246467991473532e-16,""lifeCount"":0,""updateType"":""constant direction""},{""x"":749.3499518230867,""y"":462.6991196919539,""vx"":-1,""vy"":-1.2246467991473532e-16,""vx2"":0,""vy2"":0,""latestXMove"":-1,""latestYMove"":-1.2246467991473532e-16,""lifeCount"":0,""updateType"":""constant direction""},{""x"":797.5429023667851,""y"":475.07561554084276,""vx"":-1,""vy"":-1.2246467991473532e-16,""vx2"":0,""vy2"":0,""latestXMove"":-1,""latestYMove"":-1.2246467991473532e-16,""lifeCount"":0,""updateType"":""constant direction""},{""x"":715.1464940020512,""y"":539.9282366842634,""vx"":-1,""vy"":-1.2246467991473532e-16,""vx2"":0,""vy2"":0,""latestXMove"":-1,""latestYMove"":-1.2246467991473532e-16,""lifeCount"":0,""updateType"":""constant direction""},{""x"":722.705934012904,""y"":535.5840945115893,""vx"":-1,""vy"":-1.2246467991473532e-16,""vx2"":0,""vy2"":0,""latestXMove"":-1,""latestYMove"":-1.2246467991473532e-16,""lifeCount"":0,""updateType"":""constant direction""},{""x"":777.8993695223448,""y"":529.8778326201846,""vx"":-1,""vy"":-1.2246467991473532e-16,""vx2"":0,""vy2"":0,""latestXMove"":-1,""latestYMove"":-1.2246467991473532e-16,""lifeCount"":0,""updateType"":""constant direction""},{""x"":816.0007374487157,""y"":526.4011690170385,""vx"":-1,""vy"":-1.2246467991473532e-16,""vx2"":0,""vy2"":0,""latestXMove"":-1,""latestYMove"":-1.2246467991473532e-16,""lifeCount"":0,""updateType"":""constant direction""},{""x"":852.9100879310153,""y"":460.96695834329046,""vx"":-1,""vy"":-1.2246467991473532e-16,""vx2"":0,""vy2"":0,""latestXMove"":-1,""latestYMove"":-1.2246467991473532e-16,""lifeCount"":0,""updateType"":""constant direction""},{""x"":850.4512849814716,""y"":396.44624409963296,""vx"":-1,""vy"":-1.2246467991473532e-16,""vx2"":0,""vy2"":0,""latestXMove"":-1,""latestYMove"":-1.2246467991473532e-16,""lifeCount"":0,""updateType"":""constant direction""},{""x"":838.5371816902251,""y"":431.1619814569674,""vx"":-1,""vy"":-1.2246467991473532e-16,""vx2"":0,""vy2"":0,""latestXMove"":-1,""latestYMove"":-1.2246467991473532e-16,""lifeCount"":0,""updateType"":""constant direction""},{""x"":808.4589368232502,""y"":355.59665306686225,""vx"":-1,""vy"":-1.2246467991473532e-16,""vx2"":0,""vy2"":0,""latestXMove"":-1,""latestYMove"":-1.2246467991473532e-16,""lifeCount"":0,""updateType"":""constant direction""},{""x"":755.9744722468564,""y"":519.1842779811851,""vx"":-1,""vy"":-1.2246467991473532e-16,""vx2"":0,""vy2"":0,""latestXMove"":-1,""latestYMove"":-1.2246467991473532e-16,""lifeCount"":0,""updateType"":""constant direction""},{""x"":663.9212735485952,""y"":461.82253388585525,""vx"":-1,""vy"":-1.2246467991473532e-16,""vx2"":0,""vy2"":0,""latestXMove"":-1,""latestYMove"":-1.2246467991473532e-16,""lifeCount"":0,""updateType"":""constant direction""},{""x"":715.677539380557,""y"":356.49106410215734,""vx"":-1,""vy"":-1.2246467991473532e-16,""vx2"":0,""vy2"":0,""latestXMove"":-1,""latestYMove"":-1.2246467991473532e-16,""lifeCount"":0,""updateType"":""constant direction""},{""x"":886.2720192983846,""y"":460.0537914573878,""vx"":-1,""vy"":-1.2246467991473532e-16,""vx2"":0,""vy2"":0,""latestXMove"":-1,""latestYMove"":-1.2246467991473532e-16,""lifeCount"":0,""updateType"":""constant direction""},{""x"":737.9978216757127,""y"":466.39713576775614,""vx"":-1,""vy"":-1.2246467991473532e-16,""vx2"":0,""vy2"":0,""latestXMove"":-1,""latestYMove"":-1.2246467991473532e-16,""lifeCount"":0,""updateType"":""constant direction""},{""x"":779.9758426561121,""y"":523.8302009638321,""vx"":-1,""vy"":-1.2246467991473532e-16,""vx2"":0,""vy2"":0,""latestXMove"":-1,""latestYMove"":-1.2246467991473532e-16,""lifeCount"":0,""updateType"":""constant direction""},{""x"":874.3385762831497,""y"":465.0817402898486,""vx"":-1,""vy"":-1.2246467991473532e-16,""vx2"":0,""vy2"":0,""latestXMove"":-1,""latestYMove"":-1.2246467991473532e-16,""lifeCount"":0,""updateType"":""constant direction""},{""x"":816.725657734848,""y"":518.5540353357462,""vx"":0,""vy"":0,""vx2"":-0.9662271395960087,""vy2"":0.25769189880187376,""latestXMove"":-0.9662271395960087,""latestYMove"":0.25769189880187376,""lifeCount"":0,""updateType"":""random direction""},{""x"":838.8621319207764,""y"":448.0193960475038,""vx"":0,""vy"":0,""vx2"":0.9950836602172783,""vy2"":0.09903791783243479,""latestXMove"":0.9950836602172783,""latestYMove"":0.09903791783243479,""lifeCount"":0,""updateType"":""random direction""},{""x"":718.3478044040396,""y"":486.9664417579837,""vx"":0,""vy"":0,""vx2"":0.07490843183595003,""vy2"":0.997190416540331,""latestXMove"":0.07490843183595003,""latestYMove"":0.997190416540331,""lifeCount"":0,""updateType"":""random direction""},{""x"":767.7957251187465,""y"":535.2531454078962,""vx"":0,""vy"":0,""vx2"":0.9968505274059444,""vy2"":-0.07930337956537839,""latestXMove"":0.9968505274059444,""latestYMove"":-0.07930337956537839,""lifeCount"":0,""updateType"":""random direction""},{""x"":759.1847593697697,""y"":522.3498674909664,""vx"":0,""vy"":0,""vx2"":0.9438560978874657,""vy2"":0.3303568774532274,""latestXMove"":0.9438560978874657,""latestYMove"":0.3303568774532274,""lifeCount"":0,""updateType"":""random direction""},{""x"":780.8953909512074,""y"":339.16047006313227,""vx"":0,""vy"":0,""vx2"":0.03697320475744566,""vy2"":0.9993162573129509,""latestXMove"":0.03697320475744566,""latestYMove"":0.9993162573129509,""lifeCount"":0,""updateType"":""random direction""},{""x"":808.0342229492879,""y"":385.12563217276136,""vx"":0,""vy"":0,""vx2"":-0.7110358407326236,""vy2"":-0.7031557673756584,""latestXMove"":-0.7110358407326236,""latestYMove"":-0.7031557673756584,""lifeCount"":0,""updateType"":""random direction""},{""x"":808.8359117525166,""y"":423.81736707698633,""vx"":0,""vy"":0,""vx2"":0.6084848277614668,""vy2"":-0.7935655073049093,""latestXMove"":0.6084848277614668,""latestYMove"":-0.7935655073049093,""lifeCount"":0,""updateType"":""random direction""},{""x"":801.8048528071231,""y"":541.6785457298274,""vx"":0,""vy"":0,""vx2"":0.773683925932003,""vy2"":-0.6335717660647789,""latestXMove"":0.773683925932003,""latestYMove"":-0.6335717660647789,""lifeCount"":0,""updateType"":""random direction""},{""x"":751.1330732297187,""y"":541.9662785486291,""vx"":0,""vy"":0,""vx2"":0.48680771152570634,""vy2"":-0.8735091596538096,""latestXMove"":0.48680771152570634,""latestYMove"":-0.8735091596538096,""lifeCount"":0,""updateType"":""random direction""},{""x"":766.9717744148899,""y"":491.69841555059446,""vx"":0,""vy"":0,""vx2"":-0.9997359938732882,""vy2"":-0.02297700054812979,""latestXMove"":-0.9997359938732882,""latestYMove"":-0.02297700054812979,""lifeCount"":0,""updateType"":""random direction""},{""x"":786.9283686867841,""y"":416.2127060407861,""vx"":0,""vy"":0,""vx2"":-0.16564249095589026,""vy2"":0.9861858674661322,""latestXMove"":-0.16564249095589026,""latestYMove"":0.9861858674661322,""lifeCount"":0,""updateType"":""random direction""},{""x"":860.9753398737847,""y"":511.63751308256883,""vx"":0,""vy"":0,""vx2"":0.9667297248804698,""vy2"":0.2557999981089351,""latestXMove"":0.9667297248804698,""latestYMove"":0.2557999981089351,""lifeCount"":0,""updateType"":""random direction""},{""x"":845.0732976203743,""y"":514.0554722329385,""vx"":0,""vy"":0,""vx2"":0.9935198162968973,""vy2"":-0.11365902790970638,""latestXMove"":0.9935198162968973,""latestYMove"":-0.11365902790970638,""lifeCount"":0,""updateType"":""random direction""},{""x"":730.6579087136245,""y"":428.73668512049363,""vx"":0,""vy"":0,""vx2"":-0.9973163201602967,""vy2"":-0.07321309679233973,""latestXMove"":-0.9973163201602967,""latestYMove"":-0.07321309679233973,""lifeCount"":0,""updateType"":""random direction""},{""x"":824.6485612132168,""y"":497.6428180449465,""vx"":0,""vy"":0,""vx2"":0.9522051139931219,""vy2"":0.30545936044807287,""latestXMove"":0.9522051139931219,""latestYMove"":0.30545936044807287,""lifeCount"":0,""updateType"":""random direction""},{""x"":770.8756028629164,""y"":532.7268440334573,""vx"":0,""vy"":0,""vx2"":0.3602101656407674,""vy2"":-0.9328711789786684,""latestXMove"":0.3602101656407674,""latestYMove"":-0.9328711789786684,""lifeCount"":0,""updateType"":""random direction""},{""x"":797.9402064345627,""y"":407.5347563659085,""vx"":0,""vy"":0,""vx2"":0.7730508972978894,""vy2"":-0.634343999882499,""latestXMove"":0.7730508972978894,""latestYMove"":-0.634343999882499,""lifeCount"":0,""updateType"":""random direction""},{""x"":873.7835596054962,""y"":425.2290322373705,""vx"":0,""vy"":0,""vx2"":-0.8869541807533502,""vy2"":-0.46185742523440443,""latestXMove"":-0.8869541807533502,""latestYMove"":-0.46185742523440443,""lifeCount"":0,""updateType"":""random direction""},{""x"":834.2348530335331,""y"":371.16389875301087,""vx"":0,""vy"":0,""vx2"":-0.3960647352314017,""vy2"":0.9182225903919374,""latestXMove"":-0.3960647352314017,""latestYMove"":0.9182225903919374,""lifeCount"":0,""updateType"":""random direction""},{""x"":660.5518793733947,""y"":438.11886572548906,""vx"":0,""vy"":0,""vx2"":-0.9938353600127875,""vy2"":0.11086603261708693,""latestXMove"":-0.9938353600127875,""latestYMove"":0.11086603261708693,""lifeCount"":0,""updateType"":""random direction""},{""x"":660.953955736699,""y"":464.09946740105545,""vx"":0,""vy"":0,""vx2"":0.9433880813383312,""vy2"":0.3316910128248611,""latestXMove"":0.9433880813383312,""latestYMove"":0.3316910128248611,""lifeCount"":0,""updateType"":""random direction""},{""x"":727.0474109338993,""y"":398.4079598733341,""vx"":0,""vy"":0,""vx2"":0.16636601660895678,""vy2"":0.9860640691748526,""latestXMove"":0.16636601660895678,""latestYMove"":0.9860640691748526,""lifeCount"":0,""updateType"":""random direction""},{""x"":651.2754646198097,""y"":432.3378926508279,""vx"":0,""vy"":0,""vx2"":-0.07142478487461405,""vy2"":0.9974459885656041,""latestXMove"":-0.07142478487461405,""latestYMove"":0.9974459885656041,""lifeCount"":0,""updateType"":""random direction""},{""x"":699.660077149647,""y"":433.0043511565981,""vx"":0,""vy"":0,""vx2"":-0.232353542155054,""vy2"":0.9726313954669568,""latestXMove"":-0.232353542155054,""latestYMove"":0.9726313954669568,""lifeCount"":0,""updateType"":""random direction""}]],[[{""x"":859.9152891942634,""y"":823.9641760442529,""vx"":-1,""vy"":-1.2246467991473532e-16,""vx2"":0,""vy2"":0,""latestXMove"":-1,""latestYMove"":-1.2246467991473532e-16,""lifeCount"":0,""updateType"":""constant direction""},{""x"":716.5053365540139,""y"":803.8856812390836,""vx"":-1,""vy"":-1.2246467991473532e-16,""vx2"":0,""vy2"":0,""latestXMove"":-1,""latestYMove"":-1.2246467991473532e-16,""lifeCount"":0,""updateType"":""constant direction""},{""x"":709.2178544225931,""y"":729.8079618168053,""vx"":-1,""vy"":-1.2246467991473532e-16,""vx2"":0,""vy2"":0,""latestXMove"":-1,""latestYMove"":-1.2246467991473532e-16,""lifeCount"":0,""updateType"":""constant direction""},{""x"":721.966044714309,""y"":832.9092626088845,""vx"":-1,""vy"":-1.2246467991473532e-16,""vx2"":0,""vy2"":0,""latestXMove"":-1,""latestYMove"":-1.2246467991473532e-16,""lifeCount"":0,""updateType"":""constant direction""},{""x"":699.6874349231033,""y"":765.106111377843,""vx"":-1,""vy"":-1.2246467991473532e-16,""vx2"":0,""vy2"":0,""latestXMove"":-1,""latestYMove"":-1.2246467991473532e-16,""lifeCount"":0,""updateType"":""constant direction""},{""x"":707.6549701512349,""y"":851.7001039131534,""vx"":-1,""vy"":-1.2246467991473532e-16,""vx2"":0,""vy2"":0,""latestXMove"":-1,""latestYMove"":-1.2246467991473532e-16,""lifeCount"":0,""updateType"":""constant direction""},{""x"":767.0289623399376,""y"":743.4356927928329,""vx"":-1,""vy"":-1.2246467991473532e-16,""vx2"":0,""vy2"":0,""latestXMove"":-1,""latestYMove"":-1.2246467991473532e-16,""lifeCount"":0,""updateType"":""constant direction""},{""x"":706.7775070408351,""y"":686.0534489389723,""vx"":-1,""vy"":-1.2246467991473532e-16,""vx2"":0,""vy2"":0,""latestXMove"":-1,""latestYMove"":-1.2246467991473532e-16,""lifeCount"":0,""updateType"":""constant direction""},{""x"":754.4944824404228,""y"":830.3634620147648,""vx"":-1,""vy"":-1.2246467991473532e-16,""vx2"":0,""vy2"":0,""latestXMove"":-1,""latestYMove"":-1.2246467991473532e-16,""lifeCount"":0,""updateType"":""constant direction""},{""x"":781.6543314298311,""y"":634.005372397507,""vx"":-1,""vy"":-1.2246467991473532e-16,""vx2"":0,""vy2"":0,""latestXMove"":-1,""latestYMove"":-1.2246467991473532e-16,""lifeCount"":0,""updateType"":""constant direction""},{""x"":871.687122667936,""y"":717.1028559169404,""vx"":-1,""vy"":-1.2246467991473532e-16,""vx2"":0,""vy2"":0,""latestXMove"":-1,""latestYMove"":-1.2246467991473532e-16,""lifeCount"":0,""updateType"":""constant direction""},{""x"":688.105136692941,""y"":705.4884704749837,""vx"":-1,""vy"":-1.2246467991473532e-16,""vx2"":0,""vy2"":0,""latestXMove"":-1,""latestYMove"":-1.2246467991473532e-16,""lifeCount"":0,""updateType"":""constant direction""},{""x"":776.6035323441374,""y"":728.2271369701537,""vx"":-1,""vy"":-1.2246467991473532e-16,""vx2"":0,""vy2"":0,""latestXMove"":-1,""latestYMove"":-1.2246467991473532e-16,""lifeCount"":0,""updateType"":""constant direction""},{""x"":681.1184242804935,""y"":717.4563059202914,""vx"":-1,""vy"":-1.2246467991473532e-16,""vx2"":0,""vy2"":0,""latestXMove"":-1,""latestYMove"":-1.2246467991473532e-16,""lifeCount"":0,""updateType"":""constant direction""},{""x"":823.9009257064619,""y"":837.701581022565,""vx"":-1,""vy"":-1.2246467991473532e-16,""vx2"":0,""vy2"":0,""latestXMove"":-1,""latestYMove"":-1.2246467991473532e-16,""lifeCount"":0,""updateType"":""constant direction""},{""x"":762.7285759655804,""y"":819.7944875012832,""vx"":-1,""vy"":-1.2246467991473532e-16,""vx2"":0,""vy2"":0,""latestXMove"":-1,""latestYMove"":-1.2246467991473532e-16,""lifeCount"":0,""updateType"":""constant direction""},{""x"":864.5084210757445,""y"":730.7450297456112,""vx"":-1,""vy"":-1.2246467991473532e-16,""vx2"":0,""vy2"":0,""latestXMove"":-1,""latestYMove"":-1.2246467991473532e-16,""lifeCount"":0,""updateType"":""constant direction""},{""x"":723.0370463203062,""y"":771.6392051498764,""vx"":-1,""vy"":-1.2246467991473532e-16,""vx2"":0,""vy2"":0,""latestXMove"":-1,""latestYMove"":-1.2246467991473532e-16,""lifeCount"":0,""updateType"":""constant direction""},{""x"":737.6896588088493,""y"":689.5137993261021,""vx"":-1,""vy"":-1.2246467991473532e-16,""vx2"":0,""vy2"":0,""latestXMove"":-1,""latestYMove"":-1.2246467991473532e-16,""lifeCount"":0,""updateType"":""constant direction""},{""x"":713.9706357793644,""y"":664.321570192817,""vx"":-1,""vy"":-1.2246467991473532e-16,""vx2"":0,""vy2"":0,""latestXMove"":-1,""latestYMove"":-1.2246467991473532e-16,""lifeCount"":0,""updateType"":""constant direction""},{""x"":754.084438743969,""y"":781.3388204000064,""vx"":-1,""vy"":-1.2246467991473532e-16,""vx2"":0,""vy2"":0,""latestXMove"":-1,""latestYMove"":-1.2246467991473532e-16,""lifeCount"":0,""updateType"":""constant direction""},{""x"":718.0238041731563,""y"":811.1710939411948,""vx"":-1,""vy"":-1.2246467991473532e-16,""vx2"":0,""vy2"":0,""latestXMove"":-1,""latestYMove"":-1.2246467991473532e-16,""lifeCount"":0,""updateType"":""constant direction""},{""x"":818.7187488293248,""y"":792.5966687217887,""vx"":-1,""vy"":-1.2246467991473532e-16,""vx2"":0,""vy2"":0,""latestXMove"":-1,""latestYMove"":-1.2246467991473532e-16,""lifeCount"":0,""updateType"":""constant direction""},{""x"":834.06068306071,""y"":720.7243529442726,""vx"":-1,""vy"":-1.2246467991473532e-16,""vx2"":0,""vy2"":0,""latestXMove"":-1,""latestYMove"":-1.2246467991473532e-16,""lifeCount"":0,""updateType"":""constant direction""},{""x"":746.8444569508388,""y"":838.2418337237418,""vx"":-1,""vy"":-1.2246467991473532e-16,""vx2"":0,""vy2"":0,""latestXMove"":-1,""latestYMove"":-1.2246467991473532e-16,""lifeCount"":0,""updateType"":""constant direction""},{""x"":825.6467710878422,""y"":776.1149025960852,""vx"":0,""vy"":0,""vx2"":0.9738833308557527,""vy2"":0.22704902087722056,""latestXMove"":0.9738833308557527,""latestYMove"":0.22704902087722056,""lifeCount"":0,""updateType"":""random direction""},{""x"":653.8341845109835,""y"":748.0657788352852,""vx"":0,""vy"":0,""vx2"":0.40577685275230047,""vy2"":0.9139721799761948,""latestXMove"":0.40577685275230047,""latestYMove"":0.9139721799761948,""lifeCount"":0,""updateType"":""random direction""},{""x"":827.1403093309804,""y"":720.1585176169884,""vx"":0,""vy"":0,""vx2"":-0.997748422797209,""vy2"":0.06706776279019569,""latestXMove"":-0.997748422797209,""latestYMove"":0.06706776279019569,""lifeCount"":0,""updateType"":""random direction""},{""x"":867.8135434464326,""y"":712.0176382223361,""vx"":0,""vy"":0,""vx2"":-0.8575324210714294,""vy2"":-0.5144299241017894,""latestXMove"":-0.8575324210714294,""latestYMove"":-0.5144299241017894,""lifeCount"":0,""updateType"":""random direction""},{""x"":815.846313526075,""y"":700.7187410001496,""vx"":0,""vy"":0,""vx2"":-0.9245643074951065,""vy2"":0.38102603756973613,""latestXMove"":-0.9245643074951065,""latestYMove"":0.38102603756973613,""lifeCount"":0,""updateType"":""random direction""},{""x"":739.8844896516189,""y"":765.7741571448333,""vx"":0,""vy"":0,""vx2"":0.6311953680052144,""vy2"":-0.7756238826962215,""latestXMove"":0.6311953680052144,""latestYMove"":-0.7756238826962215,""lifeCount"":0,""updateType"":""random direction""},{""x"":846.6025122376275,""y"":660.6803352485049,""vx"":0,""vy"":0,""vx2"":0.18839295096187939,""vy2"":-0.9820937307751613,""latestXMove"":0.18839295096187939,""latestYMove"":-0.9820937307751613,""lifeCount"":0,""updateType"":""random direction""},{""x"":808.2863643227741,""y"":678.0060958269994,""vx"":0,""vy"":0,""vx2"":-0.6508112127732207,""vy2"":0.7592395967865806,""latestXMove"":-0.6508112127732207,""latestYMove"":0.7592395967865806,""lifeCount"":0,""updateType"":""random direction""},{""x"":713.582005393799,""y"":677.6236170269283,""vx"":0,""vy"":0,""vx2"":0.8022496971731475,""vy2"":-0.5969886291928793,""latestXMove"":0.8022496971731475,""latestYMove"":-0.5969886291928793,""lifeCount"":0,""updateType"":""random direction""},{""x"":847.821266657849,""y"":666.0514013830377,""vx"":0,""vy"":0,""vx2"":-0.9784543187239201,""vy2"":-0.2064634257453589,""latestXMove"":-0.9784543187239201,""latestYMove"":-0.2064634257453589,""lifeCount"":0,""updateType"":""random direction""},{""x"":663.4536388836193,""y"":792.4510221539757,""vx"":0,""vy"":0,""vx2"":0.5858835089286717,""vy2"":0.8103952825414442,""latestXMove"":0.5858835089286717,""latestYMove"":0.8103952825414442,""lifeCount"":0,""updateType"":""random direction""},{""x"":789.1432948479536,""y"":664.4739260139992,""vx"":0,""vy"":0,""vx2"":-0.02841378094756208,""vy2"":-0.9995962470178967,""latestXMove"":-0.02841378094756208,""latestYMove"":-0.9995962470178967,""lifeCount"":0,""updateType"":""random direction""},{""x"":844.0111911018677,""y"":780.0512383458823,""vx"":0,""vy"":0,""vx2"":0.19235489162235042,""vy2"":0.9813254280150667,""latestXMove"":0.19235489162235042,""latestYMove"":0.9813254280150667,""lifeCount"":0,""updateType"":""random direction""},{""x"":800.8290105450105,""y"":709.1128032868655,""vx"":0,""vy"":0,""vx2"":0.9979123212768987,""vy2"":0.06458327216665202,""latestXMove"":0.9979123212768987,""latestYMove"":0.06458327216665202,""lifeCount"":0,""updateType"":""random direction""},{""x"":845.1447598024151,""y"":814.8240782355209,""vx"":0,""vy"":0,""vx2"":-0.8498523919594232,""vy2"":0.5270207888507312,""latestXMove"":-0.8498523919594232,""latestYMove"":0.5270207888507312,""lifeCount"":0,""updateType"":""random direction""},{""x"":705.5433956729507,""y"":678.412955195383,""vx"":0,""vy"":0,""vx2"":-0.7790349476574172,""vy2"":-0.6269805023510742,""latestXMove"":-0.7790349476574172,""latestYMove"":-0.6269805023510742,""lifeCount"":0,""updateType"":""random direction""},{""x"":753.6409483236047,""y"":786.9293273809385,""vx"":0,""vy"":0,""vx2"":-0.9179776663192828,""vy2"":-0.3966320765381987,""latestXMove"":-0.9179776663192828,""latestYMove"":-0.3966320765381987,""lifeCount"":0,""updateType"":""random direction""},{""x"":704.0569452980327,""y"":822.729260329169,""vx"":0,""vy"":0,""vx2"":0.4471002280297536,""vy2"":-0.8944838657548511,""latestXMove"":0.4471002280297536,""latestYMove"":-0.8944838657548511,""lifeCount"":0,""updateType"":""random direction""},{""x"":679.3075144985585,""y"":808.75577621221,""vx"":0,""vy"":0,""vx2"":-0.9823819688264013,""vy2"":0.18688410131619965,""latestXMove"":-0.9823819688264013,""latestYMove"":0.18688410131619965,""lifeCount"":0,""updateType"":""random direction""},{""x"":722.5421067120451,""y"":760.8788645482554,""vx"":0,""vy"":0,""vx2"":0.23741812105621915,""vy2"":-0.9714075539103731,""latestXMove"":0.23741812105621915,""latestYMove"":-0.9714075539103731,""lifeCount"":0,""updateType"":""random direction""},{""x"":791.56228381347,""y"":657.5405413159559,""vx"":0,""vy"":0,""vx2"":-0.9946210502329836,""vy2"":0.1035807242368805,""latestXMove"":-0.9946210502329836,""latestYMove"":0.1035807242368805,""lifeCount"":0,""updateType"":""random direction""},{""x"":684.9582942066908,""y"":793.4218163504786,""vx"":0,""vy"":0,""vx2"":0.9928043535255993,""vy2"":0.11974771655700531,""latestXMove"":0.9928043535255993,""latestYMove"":0.11974771655700531,""lifeCount"":0,""updateType"":""random direction""},{""x"":749.2174262217487,""y"":684.8879026619641,""vx"":0,""vy"":0,""vx2"":0.9944505275155556,""vy2"":0.10520526756789869,""latestXMove"":0.9944505275155556,""latestYMove"":0.10520526756789869,""lifeCount"":0,""updateType"":""random direction""},{""x"":748.539441475392,""y"":842.0885816033896,""vx"":0,""vy"":0,""vx2"":-0.5992703408575454,""vy2"":0.8005467247878049,""latestXMove"":-0.5992703408575454,""latestYMove"":0.8005467247878049,""lifeCount"":0,""updateType"":""random direction""},{""x"":712.7365479880038,""y"":808.4361754839792,""vx"":0,""vy"":0,""vx2"":0.35436079596502923,""vy2"":0.9351087777809761,""latestXMove"":0.35436079596502923,""latestYMove"":0.9351087777809761,""lifeCount"":0,""updateType"":""random direction""}]],[[{""x"":1229.0874337771602,""y"":537.6265607690979,""vx"":-1,""vy"":-1.2246467991473532e-16,""vx2"":0,""vy2"":0,""latestXMove"":-1,""latestYMove"":-1.2246467991473532e-16,""lifeCount"":0,""updateType"":""constant direction""},{""x"":1257.8261984457374,""y"":486.9938417644746,""vx"":-1,""vy"":-1.2246467991473532e-16,""vx2"":0,""vy2"":0,""latestXMove"":-1,""latestYMove"":-1.2246467991473532e-16,""lifeCount"":0,""updateType"":""constant direction""},{""x"":1102.509049661858,""y"":443.2899019265269,""vx"":-1,""vy"":-1.2246467991473532e-16,""vx2"":0,""vy2"":0,""latestXMove"":-1,""latestYMove"":-1.2246467991473532e-16,""lifeCount"":0,""updateType"":""constant direction""},{""x"":1195.5027205564882,""y"":395.7747611199018,""vx"":-1,""vy"":-1.2246467991473532e-16,""vx2"":0,""vy2"":0,""latestXMove"":-1,""latestYMove"":-1.2246467991473532e-16,""lifeCount"":0,""updateType"":""constant direction""},{""x"":1134.761459641491,""y"":549.4353835987243,""vx"":-1,""vy"":-1.2246467991473532e-16,""vx2"":0,""vy2"":0,""latestXMove"":-1,""latestYMove"":-1.2246467991473532e-16,""lifeCount"":0,""updateType"":""constant direction""},{""x"":1254.3518877948318,""y"":475.28322778544174,""vx"":-1,""vy"":-1.2246467991473532e-16,""vx2"":0,""vy2"":0,""latestXMove"":-1,""latestYMove"":-1.2246467991473532e-16,""lifeCount"":0,""updateType"":""constant direction""},{""x"":1178.791051544046,""y"":471.4764872137061,""vx"":-1,""vy"":-1.2246467991473532e-16,""vx2"":0,""vy2"":0,""latestXMove"":-1,""latestYMove"":-1.2246467991473532e-16,""lifeCount"":0,""updateType"":""constant direction""},{""x"":1067.6444996020557,""y"":364.79519275247446,""vx"":-1,""vy"":-1.2246467991473532e-16,""vx2"":0,""vy2"":0,""latestXMove"":-1,""latestYMove"":-1.2246467991473532e-16,""lifeCount"":0,""updateType"":""constant direction""},{""x"":1116.5482117691201,""y"":434.0399155357594,""vx"":-1,""vy"":-1.2246467991473532e-16,""vx2"":0,""vy2"":0,""latestXMove"":-1,""latestYMove"":-1.2246467991473532e-16,""lifeCount"":0,""updateType"":""constant direction""},{""x"":1142.4988553468443,""y"":412.3803071780818,""vx"":-1,""vy"":-1.2246467991473532e-16,""vx2"":0,""vy2"":0,""latestXMove"":-1,""latestYMove"":-1.2246467991473532e-16,""lifeCount"":0,""updateType"":""constant direction""},{""x"":1177.6882622048681,""y"":359.2746811801111,""vx"":-1,""vy"":-1.2246467991473532e-16,""vx2"":0,""vy2"":0,""latestXMove"":-1,""latestYMove"":-1.2246467991473532e-16,""lifeCount"":0,""updateType"":""constant direction""},{""x"":1049.2742986622125,""y"":488.56863939105193,""vx"":-1,""vy"":-1.2246467991473532e-16,""vx2"":0,""vy2"":0,""latestXMove"":-1,""latestYMove"":-1.2246467991473532e-16,""lifeCount"":0,""updateType"":""constant direction""},{""x"":1139.3335501941722,""y"":469.6764222670545,""vx"":-1,""vy"":-1.2246467991473532e-16,""vx2"":0,""vy2"":0,""latestXMove"":-1,""latestYMove"":-1.2246467991473532e-16,""lifeCount"":0,""updateType"":""constant direction""},{""x"":1231.4058890688793,""y"":472.73607430170574,""vx"":-1,""vy"":-1.2246467991473532e-16,""vx2"":0,""vy2"":0,""latestXMove"":-1,""latestYMove"":-1.2246467991473532e-16,""lifeCount"":0,""updateType"":""constant direction""},{""x"":1253.9644370505753,""y"":427.1828494915403,""vx"":-1,""vy"":-1.2246467991473532e-16,""vx2"":0,""vy2"":0,""latestXMove"":-1,""latestYMove"":-1.2246467991473532e-16,""lifeCount"":0,""updateType"":""constant direction""},{""x"":1192.145366295503,""y"":421.0237231897883,""vx"":-1,""vy"":-1.2246467991473532e-16,""vx2"":0,""vy2"":0,""latestXMove"":-1,""latestYMove"":-1.2246467991473532e-16,""lifeCount"":0,""updateType"":""constant direction""},{""x"":1064.1007760079506,""y"":420.94653706470257,""vx"":-1,""vy"":-1.2246467991473532e-16,""vx2"":0,""vy2"":0,""latestXMove"":-1,""latestYMove"":-1.2246467991473532e-16,""lifeCount"":0,""updateType"":""constant direction""},{""x"":1154.0458027906798,""y"":376.13331409193904,""vx"":-1,""vy"":-1.2246467991473532e-16,""vx2"":0,""vy2"":0,""latestXMove"":-1,""latestYMove"":-1.2246467991473532e-16,""lifeCount"":0,""updateType"":""constant direction""},{""x"":1145.2402649128067,""y"":517.2246656775235,""vx"":-1,""vy"":-1.2246467991473532e-16,""vx2"":0,""vy2"":0,""latestXMove"":-1,""latestYMove"":-1.2246467991473532e-16,""lifeCount"":0,""updateType"":""constant direction""},{""x"":1111.166694901325,""y"":422.9964446021934,""vx"":-1,""vy"":-1.2246467991473532e-16,""vx2"":0,""vy2"":0,""latestXMove"":-1,""latestYMove"":-1.2246467991473532e-16,""lifeCount"":0,""updateType"":""constant direction""},{""x"":1123.6818894418163,""y"":388.54604417157367,""vx"":-1,""vy"":-1.2246467991473532e-16,""vx2"":0,""vy2"":0,""latestXMove"":-1,""latestYMove"":-1.2246467991473532e-16,""lifeCount"":0,""updateType"":""constant direction""},{""x"":1122.2555982804124,""y"":511.97256651988783,""vx"":-1,""vy"":-1.2246467991473532e-16,""vx2"":0,""vy2"":0,""latestXMove"":-1,""latestYMove"":-1.2246467991473532e-16,""lifeCount"":0,""updateType"":""constant direction""},{""x"":1271.7043473249535,""y"":446.03625948962946,""vx"":-1,""vy"":-1.2246467991473532e-16,""vx2"":0,""vy2"":0,""latestXMove"":-1,""latestYMove"":-1.2246467991473532e-16,""lifeCount"":0,""updateType"":""constant direction""},{""x"":1211.521549467106,""y"":404.9068388274457,""vx"":-1,""vy"":-1.2246467991473532e-16,""vx2"":0,""vy2"":0,""latestXMove"":-1,""latestYMove"":-1.2246467991473532e-16,""lifeCount"":0,""updateType"":""constant direction""},{""x"":1173.5118782784673,""y"":546.0105841219879,""vx"":-1,""vy"":-1.2246467991473532e-16,""vx2"":0,""vy2"":0,""latestXMove"":-1,""latestYMove"":-1.2246467991473532e-16,""lifeCount"":0,""updateType"":""constant direction""},{""x"":1080.9637651892333,""y"":486.4424855605706,""vx"":0,""vy"":0,""vx2"":0.9987308674179127,""vy2"":0.05036521087679196,""latestXMove"":0.9987308674179127,""latestYMove"":0.05036521087679196,""lifeCount"":0,""updateType"":""random direction""},{""x"":1101.759201150498,""y"":394.33698183166723,""vx"":0,""vy"":0,""vx2"":0.8882262189487895,""vy2"":0.45940633862838354,""latestXMove"":0.8882262189487895,""latestYMove"":0.45940633862838354,""lifeCount"":0,""updateType"":""random direction""},{""x"":1189.1270919428162,""y"":406.65379052967984,""vx"":0,""vy"":0,""vx2"":0.8907728780765701,""vy2"":-0.454448764640398,""latestXMove"":0.8907728780765701,""latestYMove"":-0.454448764640398,""lifeCount"":0,""updateType"":""random direction""},{""x"":1174.9929726992111,""y"":558.8317277620758,""vx"":0,""vy"":0,""vx2"":0.7012061420578383,""vy2"":-0.7129585866937593,""latestXMove"":0.7012061420578383,""latestYMove"":-0.7129585866937593,""lifeCount"":0,""updateType"":""random direction""},{""x"":1174.6523081968235,""y"":461.09697140120795,""vx"":0,""vy"":0,""vx2"":-0.06509806678049995,""vy2"":0.9978788712571489,""latestXMove"":-0.06509806678049995,""latestYMove"":0.9978788712571489,""lifeCount"":0,""updateType"":""random direction""},{""x"":1061.9760199044963,""y"":479.32202041661907,""vx"":0,""vy"":0,""vx2"":0.024904746319390107,""vy2"":-0.9996898287022664,""latestXMove"":0.024904746319390107,""latestYMove"":-0.9996898287022664,""lifeCount"":0,""updateType"":""random direction""},{""x"":1198.2584300442822,""y"":494.97508668016565,""vx"":0,""vy"":0,""vx2"":-0.05851542995508656,""vy2"":-0.9982865041946481,""latestXMove"":-0.05851542995508656,""latestYMove"":-0.9982865041946481,""lifeCount"":0,""updateType"":""random direction""},{""x"":1214.0372587546638,""y"":488.38776637282535,""vx"":0,""vy"":0,""vx2"":-0.09675560187263317,""vy2"":0.9953081701193176,""latestXMove"":-0.09675560187263317,""latestYMove"":0.9953081701193176,""lifeCount"":0,""updateType"":""random direction""},{""x"":1050.7938097709618,""y"":472.1388260542682,""vx"":0,""vy"":0,""vx2"":0.14227144845180104,""vy2"":-0.9898276794247707,""latestXMove"":0.14227144845180104,""latestYMove"":-0.9898276794247707,""lifeCount"":0,""updateType"":""random direction""},{""x"":1204.2176800566845,""y"":473.2350185233292,""vx"":0,""vy"":0,""vx2"":-0.9885023229885886,""vy2"":-0.15120567927880185,""latestXMove"":-0.9885023229885886,""latestYMove"":-0.15120567927880185,""lifeCount"":0,""updateType"":""random direction""},{""x"":1142.7019330319551,""y"":415.4975334737797,""vx"":0,""vy"":0,""vx2"":-0.9950721242027136,""vy2"":-0.0991537575420077,""latestXMove"":-0.9950721242027136,""latestYMove"":-0.0991537575420077,""lifeCount"":0,""updateType"":""random direction""},{""x"":1081.9206205473638,""y"":458.99288283942997,""vx"":0,""vy"":0,""vx2"":-0.9879488965608267,""vy2"":-0.15478041796120345,""latestXMove"":-0.9879488965608267,""latestYMove"":-0.15478041796120345,""lifeCount"":0,""updateType"":""random direction""},{""x"":1101.29535445559,""y"":388.2830781873296,""vx"":0,""vy"":0,""vx2"":-0.061969178851185636,""vy2"":0.9980780635163312,""latestXMove"":-0.061969178851185636,""latestYMove"":0.9980780635163312,""lifeCount"":0,""updateType"":""random direction""},{""x"":1071.1294602250553,""y"":363.42459174926574,""vx"":0,""vy"":0,""vx2"":0.7801287958734926,""vy2"":0.625618943006823,""latestXMove"":0.7801287958734926,""latestYMove"":0.625618943006823,""lifeCount"":0,""updateType"":""random direction""},{""x"":1042.7334746773192,""y"":444.45471146763475,""vx"":0,""vy"":0,""vx2"":-0.1930016275351306,""vy2"":-0.9811984364891695,""latestXMove"":-0.1930016275351306,""latestYMove"":-0.9811984364891695,""lifeCount"":0,""updateType"":""random direction""},{""x"":1160.0243146424723,""y"":567.6870378146535,""vx"":0,""vy"":0,""vx2"":0.9550198908036077,""vy2"":-0.2965417477682783,""latestXMove"":0.9550198908036077,""latestYMove"":-0.2965417477682783,""lifeCount"":0,""updateType"":""random direction""},{""x"":1111.711412300374,""y"":532.5101542873823,""vx"":0,""vy"":0,""vx2"":0.29249417775334885,""vy2"":0.9562673036240402,""latestXMove"":0.29249417775334885,""latestYMove"":0.9562673036240402,""lifeCount"":0,""updateType"":""random direction""},{""x"":1116.8726209249644,""y"":344.46608716378086,""vx"":0,""vy"":0,""vx2"":0.7947206137256787,""vy2"":-0.606975408166987,""latestXMove"":0.7947206137256787,""latestYMove"":-0.606975408166987,""lifeCount"":0,""updateType"":""random direction""},{""x"":1218.1174343246762,""y"":455.1022680828761,""vx"":0,""vy"":0,""vx2"":-0.4924749223859168,""vy2"":-0.8703266345579602,""latestXMove"":-0.4924749223859168,""latestYMove"":-0.8703266345579602,""lifeCount"":0,""updateType"":""random direction""},{""x"":1164.6674542382407,""y"":341.54046027307857,""vx"":0,""vy"":0,""vx2"":-0.8803961935320412,""vy2"":0.4742389085833138,""latestXMove"":-0.8803961935320412,""latestYMove"":0.4742389085833138,""lifeCount"":0,""updateType"":""random direction""},{""x"":1056.1779546187424,""y"":441.87050821663644,""vx"":0,""vy"":0,""vx2"":0.16756949848742886,""vy2"":-0.9858602655430797,""latestXMove"":0.16756949848742886,""latestYMove"":-0.9858602655430797,""lifeCount"":0,""updateType"":""random direction""},{""x"":1154.5986788133473,""y"":431.02515933281984,""vx"":0,""vy"":0,""vx2"":-0.7628155630423117,""vy2"":-0.6466161278381796,""latestXMove"":-0.7628155630423117,""latestYMove"":-0.6466161278381796,""lifeCount"":0,""updateType"":""random direction""},{""x"":1124.9945608197038,""y"":476.7990402033665,""vx"":0,""vy"":0,""vx2"":0.5122599298468004,""vy2"":0.8588304630562141,""latestXMove"":0.5122599298468004,""latestYMove"":0.8588304630562141,""lifeCount"":0,""updateType"":""random direction""},{""x"":1146.1440168454815,""y"":357.6394699279044,""vx"":0,""vy"":0,""vx2"":0.9901995775669741,""vy2"":0.13965957391523887,""latestXMove"":0.9901995775669741,""latestYMove"":0.13965957391523887,""lifeCount"":0,""updateType"":""random direction""},{""x"":1190.976981516131,""y"":414.37456833535896,""vx"":0,""vy"":0,""vx2"":-0.28664983987222975,""vy2"":-0.9580354217361825,""latestXMove"":-0.28664983987222975,""latestYMove"":-0.9580354217361825,""lifeCount"":0,""updateType"":""random direction""}]],[[{""x"":1245.8204581291006,""y"":725.6274950387457,""vx"":-1,""vy"":-1.2246467991473532e-16,""vx2"":0,""vy2"":0,""latestXMove"":-1,""latestYMove"":-1.2246467991473532e-16,""lifeCount"":0,""updateType"":""constant direction""},{""x"":1196.8795507872628,""y"":790.8037805355502,""vx"":-1,""vy"":-1.2246467991473532e-16,""vx2"":0,""vy2"":0,""latestXMove"":-1,""latestYMove"":-1.2246467991473532e-16,""lifeCount"":0,""updateType"":""constant direction""},{""x"":1183.2319004624437,""y"":746.4035100925915,""vx"":-1,""vy"":-1.2246467991473532e-16,""vx2"":0,""vy2"":0,""latestXMove"":-1,""latestYMove"":-1.2246467991473532e-16,""lifeCount"":0,""updateType"":""constant direction""},{""x"":1147.8909042984365,""y"":696.6277150631031,""vx"":-1,""vy"":-1.2246467991473532e-16,""vx2"":0,""vy2"":0,""latestXMove"":-1,""latestYMove"":-1.2246467991473532e-16,""lifeCount"":0,""updateType"":""constant direction""},{""x"":1164.5943406413755,""y"":764.4876671558175,""vx"":-1,""vy"":-1.2246467991473532e-16,""vx2"":0,""vy2"":0,""latestXMove"":-1,""latestYMove"":-1.2246467991473532e-16,""lifeCount"":0,""updateType"":""constant direction""},{""x"":1095.670212810759,""y"":793.1724941043246,""vx"":-1,""vy"":-1.2246467991473532e-16,""vx2"":0,""vy2"":0,""latestXMove"":-1,""latestYMove"":-1.2246467991473532e-16,""lifeCount"":0,""updateType"":""constant direction""},{""x"":1124.5162125875654,""y"":682.2043984505469,""vx"":-1,""vy"":-1.2246467991473532e-16,""vx2"":0,""vy2"":0,""latestXMove"":-1,""latestYMove"":-1.2246467991473532e-16,""lifeCount"":0,""updateType"":""constant direction""},{""x"":1231.7227582873809,""y"":816.976988072584,""vx"":-1,""vy"":-1.2246467991473532e-16,""vx2"":0,""vy2"":0,""latestXMove"":-1,""latestYMove"":-1.2246467991473532e-16,""lifeCount"":0,""updateType"":""constant direction""},{""x"":1115.3104232984456,""y"":687.4409388679568,""vx"":-1,""vy"":-1.2246467991473532e-16,""vx2"":0,""vy2"":0,""latestXMove"":-1,""latestYMove"":-1.2246467991473532e-16,""lifeCount"":0,""updateType"":""constant direction""},{""x"":1193.6736270018653,""y"":678.7624647574943,""vx"":-1,""vy"":-1.2246467991473532e-16,""vx2"":0,""vy2"":0,""latestXMove"":-1,""latestYMove"":-1.2246467991473532e-16,""lifeCount"":0,""updateType"":""constant direction""},{""x"":1243.7588554569736,""y"":762.6999748691512,""vx"":-1,""vy"":-1.2246467991473532e-16,""vx2"":0,""vy2"":0,""latestXMove"":-1,""latestYMove"":-1.2246467991473532e-16,""lifeCount"":0,""updateType"":""constant direction""},{""x"":1214.3007656147838,""y"":769.1726096267406,""vx"":-1,""vy"":-1.2246467991473532e-16,""vx2"":0,""vy2"":0,""latestXMove"":-1,""latestYMove"":-1.2246467991473532e-16,""lifeCount"":0,""updateType"":""constant direction""},{""x"":1248.1979649400043,""y"":780.5978728595404,""vx"":-1,""vy"":-1.2246467991473532e-16,""vx2"":0,""vy2"":0,""latestXMove"":-1,""latestYMove"":-1.2246467991473532e-16,""lifeCount"":0,""updateType"":""constant direction""},{""x"":1228.0601136660641,""y"":831.1953619995807,""vx"":-1,""vy"":-1.2246467991473532e-16,""vx2"":0,""vy2"":0,""latestXMove"":-1,""latestYMove"":-1.2246467991473532e-16,""lifeCount"":0,""updateType"":""constant direction""},{""x"":1098.3910852551367,""y"":733.83862099247,""vx"":-1,""vy"":-1.2246467991473532e-16,""vx2"":0,""vy2"":0,""latestXMove"":-1,""latestYMove"":-1.2246467991473532e-16,""lifeCount"":0,""updateType"":""constant direction""},{""x"":1181.8118580601963,""y"":711.9140108656654,""vx"":-1,""vy"":-1.2246467991473532e-16,""vx2"":0,""vy2"":0,""latestXMove"":-1,""latestYMove"":-1.2246467991473532e-16,""lifeCount"":0,""updateType"":""constant direction""},{""x"":1181.485521487116,""y"":672.7519790561619,""vx"":-1,""vy"":-1.2246467991473532e-16,""vx2"":0,""vy2"":0,""latestXMove"":-1,""latestYMove"":-1.2246467991473532e-16,""lifeCount"":0,""updateType"":""constant direction""},{""x"":1192.7390765416092,""y"":747.8363383069773,""vx"":-1,""vy"":-1.2246467991473532e-16,""vx2"":0,""vy2"":0,""latestXMove"":-1,""latestYMove"":-1.2246467991473532e-16,""lifeCount"":0,""updateType"":""constant direction""},{""x"":1236.9669012966774,""y"":672.8150524960234,""vx"":-1,""vy"":-1.2246467991473532e-16,""vx2"":0,""vy2"":0,""latestXMove"":-1,""latestYMove"":-1.2246467991473532e-16,""lifeCount"":0,""updateType"":""constant direction""},{""x"":1220.869755234026,""y"":726.0198948538269,""vx"":-1,""vy"":-1.2246467991473532e-16,""vx2"":0,""vy2"":0,""latestXMove"":-1,""latestYMove"":-1.2246467991473532e-16,""lifeCount"":0,""updateType"":""constant direction""},{""x"":1238.2093306413221,""y"":813.3631165130233,""vx"":-1,""vy"":-1.2246467991473532e-16,""vx2"":0,""vy2"":0,""latestXMove"":-1,""latestYMove"":-1.2246467991473532e-16,""lifeCount"":0,""updateType"":""constant direction""},{""x"":1115.9682023845182,""y"":655.4689279738727,""vx"":-1,""vy"":-1.2246467991473532e-16,""vx2"":0,""vy2"":0,""latestXMove"":-1,""latestYMove"":-1.2246467991473532e-16,""lifeCount"":0,""updateType"":""constant direction""},{""x"":1151.606707273446,""y"":723.8653847354842,""vx"":-1,""vy"":-1.2246467991473532e-16,""vx2"":0,""vy2"":0,""latestXMove"":-1,""latestYMove"":-1.2246467991473532e-16,""lifeCount"":0,""updateType"":""constant direction""},{""x"":1117.0141782336557,""y"":760.3154484443655,""vx"":-1,""vy"":-1.2246467991473532e-16,""vx2"":0,""vy2"":0,""latestXMove"":-1,""latestYMove"":-1.2246467991473532e-16,""lifeCount"":0,""updateType"":""constant direction""},{""x"":1184.1568819875388,""y"":727.5175319285256,""vx"":-1,""vy"":-1.2246467991473532e-16,""vx2"":0,""vy2"":0,""latestXMove"":-1,""latestYMove"":-1.2246467991473532e-16,""lifeCount"":0,""updateType"":""constant direction""},{""x"":1100.1835265723496,""y"":746.2911686254926,""vx"":0,""vy"":0,""vx2"":0.774773073644613,""vy2"":0.6322394201212695,""latestXMove"":0.774773073644613,""latestYMove"":0.6322394201212695,""lifeCount"":0,""updateType"":""random direction""},{""x"":1169.4371979778243,""y"":762.7284229687267,""vx"":0,""vy"":0,""vx2"":0.4168621338428592,""vy2"":-0.9089697252208008,""latestXMove"":0.4168621338428592,""latestYMove"":-0.9089697252208008,""lifeCount"":0,""updateType"":""random direction""},{""x"":1144.6249114536718,""y"":766.2310986526007,""vx"":0,""vy"":0,""vx2"":0.6634787514952566,""vy2"":-0.7481951258290149,""latestXMove"":0.6634787514952566,""latestYMove"":-0.7481951258290149,""lifeCount"":0,""updateType"":""random direction""},{""x"":1102.0203946505894,""y"":728.6727177550655,""vx"":0,""vy"":0,""vx2"":0.9991549263411778,""vy2"":-0.04110271485140291,""latestXMove"":0.9991549263411778,""latestYMove"":-0.04110271485140291,""lifeCount"":0,""updateType"":""random direction""},{""x"":1233.715610310485,""y"":736.2118381736067,""vx"":0,""vy"":0,""vx2"":0.840415524577265,""vy2"":-0.5419425671134539,""latestXMove"":0.840415524577265,""latestYMove"":-0.5419425671134539,""lifeCount"":0,""updateType"":""random direction""},{""x"":1257.9951990857737,""y"":714.3695458592007,""vx"":0,""vy"":0,""vx2"":0.3541104324914979,""vy2"":0.9352036150489819,""latestXMove"":0.3541104324914979,""latestYMove"":0.9352036150489819,""lifeCount"":0,""updateType"":""random direction""},{""x"":1078.1162084665843,""y"":665.2113687329238,""vx"":0,""vy"":0,""vx2"":-0.962994234635427,""vy2"":-0.2695219917908894,""latestXMove"":-0.962994234635427,""latestYMove"":-0.2695219917908894,""lifeCount"":0,""updateType"":""random direction""},{""x"":1155.0095449713522,""y"":848.210054070315,""vx"":0,""vy"":0,""vx2"":0.3970961704743881,""vy2"":-0.9177770052657539,""latestXMove"":0.3970961704743881,""latestYMove"":-0.9177770052657539,""lifeCount"":0,""updateType"":""random direction""},{""x"":1205.8159891114478,""y"":778.1804539238924,""vx"":0,""vy"":0,""vx2"":0.9802878518619399,""vy2"":0.19757461246805808,""latestXMove"":0.9802878518619399,""latestYMove"":0.19757461246805808,""lifeCount"":0,""updateType"":""random direction""},{""x"":1068.7174841279596,""y"":738.8501857736128,""vx"":0,""vy"":0,""vx2"":0.30224572435932806,""vy2"":0.9532300467916992,""latestXMove"":0.30224572435932806,""latestYMove"":0.9532300467916992,""lifeCount"":0,""updateType"":""random direction""},{""x"":1100.6301254627147,""y"":657.66673944411,""vx"":0,""vy"":0,""vx2"":0.5455019410089608,""vy2"":0.8381095586827872,""latestXMove"":0.5455019410089608,""latestYMove"":0.8381095586827872,""lifeCount"":0,""updateType"":""random direction""},{""x"":1148.518236078341,""y"":720.0788203411995,""vx"":0,""vy"":0,""vx2"":-0.802572775882214,""vy2"":-0.5965542216871133,""latestXMove"":-0.802572775882214,""latestYMove"":-0.5965542216871133,""lifeCount"":0,""updateType"":""random direction""},{""x"":1179.4298787476137,""y"":751.4373079027483,""vx"":0,""vy"":0,""vx2"":0.3520516043748753,""vy2"":0.9359805916027727,""latestXMove"":0.3520516043748753,""latestYMove"":0.9359805916027727,""lifeCount"":0,""updateType"":""random direction""},{""x"":1162.461960457173,""y"":641.7600244528035,""vx"":0,""vy"":0,""vx2"":0.36564350655040223,""vy2"":-0.9307549764129794,""latestXMove"":0.36564350655040223,""latestYMove"":-0.9307549764129794,""lifeCount"":0,""updateType"":""random direction""},{""x"":1247.9779019227494,""y"":747.2498099844393,""vx"":0,""vy"":0,""vx2"":-0.8836820369304887,""vy2"":0.46808766017315845,""latestXMove"":-0.8836820369304887,""latestYMove"":0.46808766017315845,""lifeCount"":0,""updateType"":""random direction""},{""x"":1148.5695597978943,""y"":643.0506230607269,""vx"":0,""vy"":0,""vx2"":-0.9434987922295874,""vy2"":-0.331375963312534,""latestXMove"":-0.9434987922295874,""latestYMove"":-0.331375963312534,""lifeCount"":0,""updateType"":""random direction""},{""x"":1175.2326779552072,""y"":836.6225975761978,""vx"":0,""vy"":0,""vx2"":-0.9950415930724232,""vy2"":0.099459680553951,""latestXMove"":-0.9950415930724232,""latestYMove"":0.099459680553951,""lifeCount"":0,""updateType"":""random direction""},{""x"":1165.5628128377125,""y"":713.6261803887934,""vx"":0,""vy"":0,""vx2"":0.33160889510633773,""vy2"":-0.9434169495437073,""latestXMove"":0.33160889510633773,""latestYMove"":-0.9434169495437073,""lifeCount"":0,""updateType"":""random direction""},{""x"":1078.2313705862523,""y"":833.7536794662053,""vx"":0,""vy"":0,""vx2"":-0.449834994848856,""vy2"":0.8931116824951568,""latestXMove"":-0.449834994848856,""latestYMove"":0.8931116824951568,""lifeCount"":0,""updateType"":""random direction""},{""x"":1219.4833631623917,""y"":820.7886149478394,""vx"":0,""vy"":0,""vx2"":-0.22634690675694083,""vy2"":-0.974046753396142,""latestXMove"":-0.22634690675694083,""latestYMove"":-0.974046753396142,""lifeCount"":0,""updateType"":""random direction""},{""x"":1101.675557959288,""y"":768.6497461859171,""vx"":0,""vy"":0,""vx2"":-0.5574439883230433,""vy2"":0.8302145505123953,""latestXMove"":-0.5574439883230433,""latestYMove"":0.8302145505123953,""lifeCount"":0,""updateType"":""random direction""},{""x"":1115.0261755102758,""y"":718.8296701981133,""vx"":0,""vy"":0,""vx2"":-0.8753562763040884,""vy2"":-0.48347842716613576,""latestXMove"":-0.8753562763040884,""latestYMove"":-0.48347842716613576,""lifeCount"":0,""updateType"":""random direction""},{""x"":1067.325888420198,""y"":743.1729909540217,""vx"":0,""vy"":0,""vx2"":-0.36591962486984486,""vy2"":-0.930646457111997,""latestXMove"":-0.36591962486984486,""latestYMove"":-0.930646457111997,""lifeCount"":0,""updateType"":""random direction""},{""x"":1226.719418781176,""y"":766.9789901000562,""vx"":0,""vy"":0,""vx2"":0.7823366924296675,""vy2"":0.6228557615356928,""latestXMove"":0.7823366924296675,""latestYMove"":0.6228557615356928,""lifeCount"":0,""updateType"":""random direction""},{""x"":1142.1177339889998,""y"":738.9938408277823,""vx"":0,""vy"":0,""vx2"":-0.5722277547796499,""vy2"":-0.8200947485869183,""latestXMove"":-0.5722277547796499,""latestYMove"":-0.8200947485869183,""lifeCount"":0,""updateType"":""random direction""}]]]","","false","240","240","black","[768,768,1152,1152]","[450,750,450,750]","false","1","1","1920","1200","[300,100,200,100,200,100,200,100,200,100,200,100,200,500]","","","","","","1","[50,50,50,50]","1","180","0.5","0","1.3333333333333333","-1","1","white","2","2","8.323008849557523","[2,1,2,1,20,1,17,0,16,2,15,1,16,0,16,1,15,1,17,0,15,2,15,2,15,1,16,1,15,1,17,1,14,1,16,2,15,1,16,1,16,1,15,1,16,1,16,0,16,1,16,1,16,1,15,1,16,1,15,1,16,1,16,0,17,1,15,1,16,1,16,0,16,1,16,0,17,1,15,1,16,1,16,1,16,0,16,1,16,0,16,1,16,1,15,1,17,1,16,0,16,1,16,0,16,1,16,1,15,1,16,1,16,1,16,1,15,1,16,1,15,1,16,1,16,1,16,1,15,1,16,1,16,0,16,1,16,1,16,1,15,1,16,1,16,1,16,1,15,1,16,1,15,1,16,2,15,1,16,0,17,0,16,0,17,1,16,1,15,1,16,1,16,0,17,1,15,1,16,1,15,1,16,1,15,1,17,0,16,1,15,1,17,0,15,1,17,1,16,0,16,1,16,1,15,1,16,1,16,1,16,0,16,1,16,0,16,1,16,1,16,1,15,1,16,1,16,0,16,1,16,1,16,0,16,1,16,1,16,1,16,1,15,1,16,1,15,1,16,1,16,1,16,1,15,1,16,1,16,0,16,1,16,0,17,0,16,1,16,1,16,1,15,2,15,1,16,1,16,0,17,0,16,1,15,2,15,1,16,1,16,0,17,0,16,1,16,1,16,0,16,0,17,1,15,2,15,1,16,1,15,1,16,1,16,1,16,1,15,1,16,1,16,0,16,1,16,1,15,1,16,1,16,1,16,0,16,1,16,1,15,1,16,1,16,1,16,1,15,1,16,1,15,1,16,1,16,1,16,0,16,1,16,1,16,0,17,0,16,1,16,1,15,1,16,1,16,0,17,0,17,0,16,0,17,1,16,0,16,1,16,1,16,0,16,1,16,1,16,0,16,1,16,1,15,1,16,1,16,1,15,1,16,1,15,2,16,0,17,0,16,1,16,1,15,1,16,1,16,1,16,0,16,1,16,0,16,1,16,1,16,1,15,1,16,1,16,0,16,1,16,0,17,0,16,1,16,1,16,0,16,1,16,1,16,1,15,1,16,1,16,0,17,0,16,1,16,1,15,1,16,1,16,0,16,1,16,1,16,1,15,2,15,2,15,1,16,1,15,1,16,1,16,1,15,2,15,1,16,1,16,0,16,1,16,1,16,1,15,1,16,0,17,1,15,1,16,1,16,1,15,1,16,1,16,1,16,1,15,1,16,1,15,1,16,1,16,1,15,1,16,1,16,0,17,0,16,1,16,1,15,1,16,1,15,1,17,0,16,1,16,1,15,1,16,1,16,0,17,0,16,1,16,1,16,0,17,0,16,1,16,0,16,1,16,1,15,1,17,0,16,1,16,0,16,1,16,1,16,1,15,1,16,2,15,0,16,1,16,1,16,1,15,1,17,0,16,1,16,0,16,1,16,1,16,0,16,2,15,1,16,1,15,1,16,0,17,0,16,2,15,1,16,1,15,1,17,1,15,1,15,1,17,0,15,1,17,1,16,0,16,1,16,1,15,1,16,1,16,1,16,1,15,1,16,1,15,1,16,1,16,1,15,2,15,1,15,2,16,0,16,1,16,1,16,1,15,1,16,1,16,0,16,1,16,0,16,1,17,0,16,1,15,1,16,1,16,0,17,0,17,1,15,0,17,1,15,1,16,0,17,1,15,1,16,1,15,1,16,1,17,1,15,0,16,2,15,1,16,0,16,1,17,0,16,1,16,1,16,0,16,0,17,1,15,1,16,1,16,1,16,0,16,1,16,1,16,1,15,1,16,1,15,1,17,0,16,1,16,1,15,1,15,1,17,1,15,1,16,1,16,1,15,1,16,1,16,1,16,0,16,1,16,0,16,1,16,1,16,1,15,1,16,1,16,0,16,2,15,1,16,1,15,1,17,0,15,1,17,0,16,1,15,1,17,0,16,2,15,0,17,1,15,1,15,1,17,0,16,2,15,0,17,1,15,1,16,1,15,2,15,1,16,1,15,2,16,0,17,0,16,1,16,1,15,1,16,1,16,1,16,0,16,1,16,1,15,1,16,1,16,1,15,1,16,1,15,2,15,1,16,1,16,1,16,0,16,1,16,1,16,0,16,1,16,0,16,1,17,0,16,1,15,2,15,1,16,0,16,1,17,1,15,0,17,1,15,1,16,0,16,1,16,1,16,1,15,1,16,1,17,0,15,1,16,2,15,1,15,2,15,1,17,0,16,1,16,1,15,1,16,0,17,1,15,1,16,1,16,1,15,1,16,1,16,1,16,1,15,1,16,1,15,1,16,1,16,1,16,1,15,1,15,1,17,0,17,0,16,1,16,1,15,1,16,1,16,0,17,0,16,0,17,0,16,1,16,0,17,0,16,1,16,0,17,0,16,2,15,1,16,1,15,1,17,0,15,1,16,1,16,1,15,1,16,1,16,1,16,0,17,1,15,1,16,1,15,1,16,2,15,0,17,1,15,1,16,1,15,2,15,1,16,1,16,0,16,2,15,1,16,1,15,1,16,1,16,0,16,2,15,1,16,0,16,1,16,1,16,1,15,1,16,1,16,1,16,0,16,2,15,0,17,0,16,1,15,1,17,0,16,1,16,1,16,0,17,0,16,1,16,1,15,1,16,1,16,0,17,0,16,1,16,1,15,1,16,1,16,1,16,1,15,1,16,1,16,0,16,1,16,1,16,1,15,1,16,1,16,0,16,1,16,1,16,0,16,1,16,1,16,0,16,1,16,1,16,1,15,1,16,1,16,0,16,1,16,1,16,0,16,1,17,0,16,0,17,0,16,1,16,0,17,0,16,2,15,1,15,2,15,1,17,0,15,1,16,1,16,1,15,2,15,1,16,1,15,2,15,1,16,1,16,1,16,1,15,1,16,1,16,0,16,1,16,1,16,1,15,1,16,1,16,0,17,0,16,1,16,1,15,1,16,1,16,0,17,0,16,1,16,1,15,1,16,1,16,1,16,0,16,1,16,0,17,0,16,2,15,0,17,0,16,1,15,1,17,0,16,2,15,0,17,0,16,1,16,0,16,1,16,1,16,1,15,1]","1356","false","20","20","black","1",""
